#
# Results on Wed, 02 Apr 2025 12:36:43 GMT
# USER AGENT: Mozilla/5.0 (Windows NT 10.0; Win64; x64) AppleWebKit/537.36 (KHTML, like Gecko) Chrome/134.0.0.0 Safari/537.36 Edg/134.0.0.0
# Design number was non-random = 1
#
# Columns below this comment are as follows:
# 1. Results reception time.
# 2. MD5 hash of participant's IP address.
# 3. Controller name.
# 4. Order number of item.
# 5. Inner element number.
# 6. Label.
# 7. Latin Square Group.
# 8. PennElementType.
# 9. PennElementName.
# 10. Parameter.
# 11. Value.
# 12. EventTime.
# 13. Comments.
1743597403,ce01bbb5445342616eec4d38439ae972,PennController,1,0,intro,NULL,PennController,0,_Trial_,Start,1743596783770,NULL
1743597403,ce01bbb5445342616eec4d38439ae972,PennController,1,0,intro,NULL,PennController,0,_Trial_,End,1743596797358,NULL
1743597403,ce01bbb5445342616eec4d38439ae972,PennController,2,0,consent-low-sd,NULL,PennController,1,_Trial_,Start,1743596797359,NULL
1743597403,ce01bbb5445342616eec4d38439ae972,PennController,2,0,consent-low-sd,NULL,PennController,1,_Trial_,End,1743596947416,NULL
# 13. age.
# 14. gender.
# 15. occupation.
# 16. Comments.
1743597403,ce01bbb5445342616eec4d38439ae972,PennController,3,0,personal-info,NULL,PennController,2,_Trial_,Start,1743596947418, 22,Male,student,NULL
1743597403,ce01bbb5445342616eec4d38439ae972,PennController,3,0,personal-info,NULL,PennController,2,_Trial_,End,1743596981325, 22,Male,student,NULL
# 13. Comments.
1743597403,ce01bbb5445342616eec4d38439ae972,PennController,4,0,trial-start,NULL,PennController,3,_Trial_,Start,1743596981326,NULL
1743597403,ce01bbb5445342616eec4d38439ae972,PennController,4,0,trial-start,NULL,PennController,3,_Trial_,End,1743597000542,NULL
1743597403,ce01bbb5445342616eec4d38439ae972,PennController,5,0,trial,NULL,PennController,9,_Trial_,Start,1743597000543,NULL
1743597403,ce01bbb5445342616eec4d38439ae972,PennController,5,0,trial,NULL,PennController,9,_Trial_,End,1743597008796,NULL
1743597403,ce01bbb5445342616eec4d38439ae972,PennController,6,0,trial,NULL,PennController,10,_Trial_,Start,1743597008797,NULL
1743597403,ce01bbb5445342616eec4d38439ae972,PennController,6,0,trial,NULL,PennController,10,_Trial_,End,1743597015628,NULL
1743597403,ce01bbb5445342616eec4d38439ae972,PennController,7,0,trial,NULL,PennController,11,_Trial_,Start,1743597015630,NULL
1743597403,ce01bbb5445342616eec4d38439ae972,PennController,7,0,trial,NULL,PennController,11,_Trial_,End,1743597022745,NULL
1743597403,ce01bbb5445342616eec4d38439ae972,PennController,8,0,experiment-start-low-sd,NULL,PennController,4,_Trial_,Start,1743597022746,NULL
1743597403,ce01bbb5445342616eec4d38439ae972,PennController,8,0,experiment-start-low-sd,NULL,PennController,4,_Trial_,End,1743597057252,NULL
# 13. question.
# 14. type.
# 15. Comments.
1743597403,ce01bbb5445342616eec4d38439ae972,PennController,9,0,experiment,NULL,PennController,12,_Trial_,Start,1743597057253,How often do you share personal and sensitive information with chatbots (e.g. sexual orientation%2C healthcare data)?,experiment,NULL
1743597403,ce01bbb5445342616eec4d38439ae972,PennController,9,0,experiment,NULL,Timer,RT,Start,Start,1743597057255,How often do you share personal and sensitive information with chatbots (e.g. sexual orientation%2C healthcare data)?,experiment,NULL
1743597403,ce01bbb5445342616eec4d38439ae972,PennController,9,0,experiment,NULL,Timer,RT,End,End,1743597067338,How often do you share personal and sensitive information with chatbots (e.g. sexual orientation%2C healthcare data)?,experiment,NULL
1743597403,ce01bbb5445342616eec4d38439ae972,PennController,9,0,experiment,NULL,MouseTracker,mouse,Click,841:486,1743597057261,How often do you share personal and sensitive information with chatbots (e.g. sexual orientation%2C healthcare data)?,experiment,NULL
1743597403,ce01bbb5445342616eec4d38439ae972,PennController,9,0,experiment,NULL,MouseTracker,mouse,Click,976:338,1743597064707,How often do you share personal and sensitive information with chatbots (e.g. sexual orientation%2C healthcare data)?,experiment,NULL
1743597403,ce01bbb5445342616eec4d38439ae972,PennController,9,0,experiment,NULL,MouseTracker,mouse,Click,976:338,1743597065224,How often do you share personal and sensitive information with chatbots (e.g. sexual orientation%2C healthcare data)?,experiment,NULL
1743597403,ce01bbb5445342616eec4d38439ae972,PennController,9,0,experiment,NULL,MouseTracker,mouse,Click,976:338,1743597065226,How often do you share personal and sensitive information with chatbots (e.g. sexual orientation%2C healthcare data)?,experiment,NULL
1743597403,ce01bbb5445342616eec4d38439ae972,PennController,9,0,experiment,NULL,MouseTracker,mouse,Click,850:335,1743597066446,How often do you share personal and sensitive information with chatbots (e.g. sexual orientation%2C healthcare data)?,experiment,NULL
1743597403,ce01bbb5445342616eec4d38439ae972,PennController,9,0,experiment,NULL,MouseTracker,mouse,Click,850:335,1743597066449,How often do you share personal and sensitive information with chatbots (e.g. sexual orientation%2C healthcare data)?,experiment,NULL
1743597403,ce01bbb5445342616eec4d38439ae972,PennController,9,0,experiment,NULL,MouseTracker,mouse,Move,x841y486w1699h907t4309-3-2t14-7-8t17-7-8t20-8-12t13-2-3t17-2-6t17+0-3t31-1+0t15+0-2t7+0-1t13+0-1t17+1-6t17+2-7t23+8-10t10+5-5t16+7-10t17+7-9t17+5-7t16+5-10t22+2-4t12+1-2t17+0-4t16+1-5t18+1-3t16+0-6t30+0-2t1426+4+0t15+15+0t16+12+0t17+9+0t17+13+1t17+9+1t16+10+0t17+5+1t17+5+1t16+1+0t17+1+0t17+1+0t16+3+0t17+4+0t24+4+1t9+2+0t17+2+0t17+2+0t20+1+1t16+1+0t23+1+0t15+1+0t42+2+0t17+3+0t17+3+0t17+4+0t16+7-1t461+0-3t12-3-7t17+0-3t17-2-3t16+0-1t183+0+0t442+0+0t213+0+0t386-9+2t40-54+13t22-17+2t3-8+0t17-12+1t16-10+0t17-5+0t17-3+0t17-2-2t16-2+0t17-1+0t17-1-2t16-2-2t17+0-2t16+0-2t17+0-2t17+0-2t17+0-3t16+0-1t17+0-2t50+0-1t552+0+7t15+0+24t16+0+10t17+3+18t16+1+5t17+1+5t18+1+3t16+2+9t16+3+10t17+1+9t17+2+10t16+3+7t17+1+3t17+0+2t24+0+1t77+0+1t15+0+1,1743597057255,How often do you share personal and sensitive information with chatbots (e.g. sexual orientation%2C healthcare data)?,experiment,NULL
1743597403,ce01bbb5445342616eec4d38439ae972,PennController,9,0,experiment,NULL,Scale,response,Choice,Often,1743597065226,How often do you share personal and sensitive information with chatbots (e.g. sexual orientation%2C healthcare data)?,experiment,NULL
1743597403,ce01bbb5445342616eec4d38439ae972,PennController,9,0,experiment,NULL,Scale,response,Choice,Sometimes,1743597066449,How often do you share personal and sensitive information with chatbots (e.g. sexual orientation%2C healthcare data)?,experiment,NULL
1743597403,ce01bbb5445342616eec4d38439ae972,PennController,9,0,experiment,NULL,PennController,12,_Trial_,End,1743597067341,How often do you share personal and sensitive information with chatbots (e.g. sexual orientation%2C healthcare data)?,experiment,NULL
1743597403,ce01bbb5445342616eec4d38439ae972,PennController,10,0,experiment,NULL,PennController,13,_Trial_,Start,1743597067343,How often do you ask chatbots for advice in topics related to your personal life (e.g. relationships%2C emotions%2C feelings)?,experiment,NULL
1743597403,ce01bbb5445342616eec4d38439ae972,PennController,10,0,experiment,NULL,Timer,RT,Start,Start,1743597067344,How often do you ask chatbots for advice in topics related to your personal life (e.g. relationships%2C emotions%2C feelings)?,experiment,NULL
1743597403,ce01bbb5445342616eec4d38439ae972,PennController,10,0,experiment,NULL,Timer,RT,End,End,1743597078692,How often do you ask chatbots for advice in topics related to your personal life (e.g. relationships%2C emotions%2C feelings)?,experiment,NULL
1743597403,ce01bbb5445342616eec4d38439ae972,PennController,10,0,experiment,NULL,MouseTracker,mouse,Click,868:460,1743597067348,How often do you ask chatbots for advice in topics related to your personal life (e.g. relationships%2C emotions%2C feelings)?,experiment,NULL
1743597403,ce01bbb5445342616eec4d38439ae972,PennController,10,0,experiment,NULL,MouseTracker,mouse,Click,547:348,1743597076905,How often do you ask chatbots for advice in topics related to your personal life (e.g. relationships%2C emotions%2C feelings)?,experiment,NULL
1743597403,ce01bbb5445342616eec4d38439ae972,PennController,10,0,experiment,NULL,MouseTracker,mouse,Click,568:338,1743597077859,How often do you ask chatbots for advice in topics related to your personal life (e.g. relationships%2C emotions%2C feelings)?,experiment,NULL
1743597403,ce01bbb5445342616eec4d38439ae972,PennController,10,0,experiment,NULL,MouseTracker,mouse,Click,568:338,1743597077861,How often do you ask chatbots for advice in topics related to your personal life (e.g. relationships%2C emotions%2C feelings)?,experiment,NULL
1743597403,ce01bbb5445342616eec4d38439ae972,PennController,10,0,experiment,NULL,MouseTracker,mouse,Move,x868y460w1699h907t8479-8-3t16-22-11t16-12-8t16-8-3t17-8-5t17-10-6t17-13-9t15-20-10t17-33-10t17-26-7t17-18-2t17-14-2t16-13-4t17-17-5t17-8-3t16-9-4t17-9+0t16-16-2t17-14+2t17-20+0t16-4+0t17-7-2t17-2-4t16-1-3t17-2-1t17-4-4t17-3-2t16-3-1t17-2-1t19-1+0t16-1+0t178+2+0t7+3+0t10+1+0t17+1+0t137+0-1t30+0-1t430+1+0t13+2+1t17+4+1t16+8+6t17+12+8t18+14+9t16+10+7t18+2+2t15+2+0t17+0+2t16+1+0t17+1+0t16+2+0t26+0+1t86+0-1t6-2-5t18-5-11t15-7-10t16-8-9t22-7-7t11-1+0t17-2+0t17-1-1t17-2-1t16-2-1t17-1-1t464+4+4t7+8+9t12+9+10t17+27+25t17+32+27t16+33+22t17+32+13t17+17+3t16+13+0t17+13-1t18+21-1t15+5-2t17+16+1t16+14+0t17+6+0t17+6-1t17+6-1t16+9-2t17+6+0t17+3+0t16+2-1t17+3-1t17+6+0t16+8+3t17+6+2t17+3+2,1743597067344,How often do you ask chatbots for advice in topics related to your personal life (e.g. relationships%2C emotions%2C feelings)?,experiment,NULL
1743597403,ce01bbb5445342616eec4d38439ae972,PennController,10,0,experiment,NULL,Scale,response,Choice,Never,1743597077861,How often do you ask chatbots for advice in topics related to your personal life (e.g. relationships%2C emotions%2C feelings)?,experiment,NULL
1743597403,ce01bbb5445342616eec4d38439ae972,PennController,10,0,experiment,NULL,PennController,13,_Trial_,End,1743597078695,How often do you ask chatbots for advice in topics related to your personal life (e.g. relationships%2C emotions%2C feelings)?,experiment,NULL
1743597403,ce01bbb5445342616eec4d38439ae972,PennController,11,0,experiment,NULL,PennController,14,_Trial_,Start,1743597078698,How often do you see news or articles about artificial intelligence in your daily life (e.g.%2C on social media%2C news websites%2C or TV)?,filler,NULL
1743597403,ce01bbb5445342616eec4d38439ae972,PennController,11,0,experiment,NULL,Timer,RT,Start,Start,1743597078699,How often do you see news or articles about artificial intelligence in your daily life (e.g.%2C on social media%2C news websites%2C or TV)?,filler,NULL
1743597403,ce01bbb5445342616eec4d38439ae972,PennController,11,0,experiment,NULL,Timer,RT,End,End,1743597090708,How often do you see news or articles about artificial intelligence in your daily life (e.g.%2C on social media%2C news websites%2C or TV)?,filler,NULL
1743597403,ce01bbb5445342616eec4d38439ae972,PennController,11,0,experiment,NULL,MouseTracker,mouse,Click,876:449,1743597078702,How often do you see news or articles about artificial intelligence in your daily life (e.g.%2C on social media%2C news websites%2C or TV)?,filler,NULL
1743597403,ce01bbb5445342616eec4d38439ae972,PennController,11,0,experiment,NULL,MouseTracker,mouse,Click,981:331,1743597089421,How often do you see news or articles about artificial intelligence in your daily life (e.g.%2C on social media%2C news websites%2C or TV)?,filler,NULL
1743597403,ce01bbb5445342616eec4d38439ae972,PennController,11,0,experiment,NULL,MouseTracker,mouse,Click,981:331,1743597089424,How often do you see news or articles about artificial intelligence in your daily life (e.g.%2C on social media%2C news websites%2C or TV)?,filler,NULL
1743597403,ce01bbb5445342616eec4d38439ae972,PennController,11,0,experiment,NULL,MouseTracker,mouse,Move,x876y449w1699h907t9633+4-4t17+10-17t14+10-18t17+10-16t16+8-12t17+6-8t16+4-4t17+0-3t17+1-2t17+1-3t17+3-4t16+5-6t19+14-19t14+6-5t17+10-10t17+2-4t16+2-2t17+8-7t20+14-13t14+5-6t16+9-6t17+1+0t51+1+0t16+2+5t16+1+3t16+0+2t17+0+2t17+0+2t20+0+1t15-1+0t15-1+1t16-3+4t17-3+2t17-2+1t17-3+1t16-2+2t17-2+2t17-3+1t16-2+1t17-3+5t17-3+4t16-2+5t17-1+4t17+0+2t117-1+0t69+0+1t349+0+2t15+0+3t17-2+8t17-3+8t17-5+12t16-10+15t17-11+11t16-20+12t17-12+6t17-13+4t17-11+3t17-13+3t16-9+2t16-12+3t17-5+4t16-5+2t17-2+1t17-1+2t17-1+1t16-2+3t17+0+2t17-2+4t16+0+5t17-2+4t17-2+5t16+0+2,1743597078699,How often do you see news or articles about artificial intelligence in your daily life (e.g.%2C on social media%2C news websites%2C or TV)?,filler,NULL
1743597403,ce01bbb5445342616eec4d38439ae972,PennController,11,0,experiment,NULL,Scale,response,Choice,Often,1743597089424,How often do you see news or articles about artificial intelligence in your daily life (e.g.%2C on social media%2C news websites%2C or TV)?,filler,NULL
1743597403,ce01bbb5445342616eec4d38439ae972,PennController,11,0,experiment,NULL,PennController,14,_Trial_,End,1743597090710,How often do you see news or articles about artificial intelligence in your daily life (e.g.%2C on social media%2C news websites%2C or TV)?,filler,NULL
1743597403,ce01bbb5445342616eec4d38439ae972,PennController,12,0,experiment,NULL,PennController,15,_Trial_,Start,1743597090712,How often do you chat with chatbots even if you don't need anything from them (e.g. just to chat)?,experiment,NULL
1743597403,ce01bbb5445342616eec4d38439ae972,PennController,12,0,experiment,NULL,Timer,RT,Start,Start,1743597090712,How often do you chat with chatbots even if you don't need anything from them (e.g. just to chat)?,experiment,NULL
1743597403,ce01bbb5445342616eec4d38439ae972,PennController,12,0,experiment,NULL,Timer,RT,End,End,1743597106420,How often do you chat with chatbots even if you don't need anything from them (e.g. just to chat)?,experiment,NULL
1743597403,ce01bbb5445342616eec4d38439ae972,PennController,12,0,experiment,NULL,MouseTracker,mouse,Click,838:458,1743597090716,How often do you chat with chatbots even if you don't need anything from them (e.g. just to chat)?,experiment,NULL
1743597403,ce01bbb5445342616eec4d38439ae972,PennController,12,0,experiment,NULL,MouseTracker,mouse,Click,686:327,1743597103248,How often do you chat with chatbots even if you don't need anything from them (e.g. just to chat)?,experiment,NULL
1743597403,ce01bbb5445342616eec4d38439ae972,PennController,12,0,experiment,NULL,MouseTracker,mouse,Click,686:327,1743597103251,How often do you chat with chatbots even if you don't need anything from them (e.g. just to chat)?,experiment,NULL
1743597403,ce01bbb5445342616eec4d38439ae972,PennController,12,0,experiment,NULL,MouseTracker,mouse,Click,569:324,1743597105712,How often do you chat with chatbots even if you don't need anything from them (e.g. just to chat)?,experiment,NULL
1743597403,ce01bbb5445342616eec4d38439ae972,PennController,12,0,experiment,NULL,MouseTracker,mouse,Click,569:324,1743597105714,How often do you chat with chatbots even if you don't need anything from them (e.g. just to chat)?,experiment,NULL
1743597403,ce01bbb5445342616eec4d38439ae972,PennController,12,0,experiment,NULL,MouseTracker,mouse,Move,x838y458w1699h907t9574-3-1t15-9-2t21-10-3t12-10-4t17-8-3t16-8-5t18-11-6t23-10-6t9-5-2t17-5-4t17-4-2t16-3-2t18-4-4t23-1-1t9-1+0t2035+1+0t18+2+0t13+3+0t17+4+0t17+2-1t16+2-1t17+2-1t17+0-4t16+0-4t17-1-6t17-10-10t16-15-11t18-13-10t16-11-10t16-11-11t17-6-6t17-3-4t17-3-3t16-1-1t17-1-1t16-1-2t663+0+1t13+3+4t17+4+6t18+7+15t27+8+13t7+1+2t15+4+4t17+1+1t16+0+1t367+1+0t22+1+1t17+8+4t16+10+7t17+14+8t17+13+8t16+13+8t17+13+6t17+9+4t16+7+3t17+3+2t17+1+1t17+1+0t26+1+0t23+0+1t31+0+1t15+1+0t38+0+2t17-2+3t16-2+1t17-2+0t16-2+0t17-2+1t17-4+0t17-2+2t16-2+0t17-2+0t69-1+0t14+0-1t72-1+0t134-2+0t13-2+0t8-1+0t17-3+0t17-4-1t16-8-3t17-12-7t16-17-11t17-26-24t17-15-15t16-14-13t17-14-12t17-12-11t16-8-8t17-7-4t16-7-5t17-11-5t17-7-4t17-6-2t17-2-1t16-3-2t17-4-2t16-6-3t17-5-4t17-4-1t17-2-1t16-2+0t17-3+3t16-3+4t17-4+5t17+0+2t17-1+2t16-1+3t17-1+3t17-1+2t18+0+1t139+0+1t11-1+0t19+0+1t296+12+6t16+32+14t26+62+29t20+56+27t8+17+6t12+17+6t17+25+6t16+16+6t17+19+6t17+4+1t16+3+0t21+1+1t13+1+0t17+3+1t16+3+3t17+2+1t17+2+1t17+1+0t15+1+0t51+1+0t25+1+0t16+0+1t14+1+0t45+1+1,1743597090712,How often do you chat with chatbots even if you don't need anything from them (e.g. just to chat)?,experiment,NULL
1743597403,ce01bbb5445342616eec4d38439ae972,PennController,12,0,experiment,NULL,Scale,response,Choice,Few times,1743597103251,How often do you chat with chatbots even if you don't need anything from them (e.g. just to chat)?,experiment,NULL
1743597403,ce01bbb5445342616eec4d38439ae972,PennController,12,0,experiment,NULL,Scale,response,Choice,Never,1743597105714,How often do you chat with chatbots even if you don't need anything from them (e.g. just to chat)?,experiment,NULL
1743597403,ce01bbb5445342616eec4d38439ae972,PennController,12,0,experiment,NULL,PennController,15,_Trial_,End,1743597106423,How often do you chat with chatbots even if you don't need anything from them (e.g. just to chat)?,experiment,NULL
1743597403,ce01bbb5445342616eec4d38439ae972,PennController,13,0,experiment,NULL,PennController,16,_Trial_,Start,1743597106425,How often do you rely on the answers of chatbots without checking them?,experiment,NULL
1743597403,ce01bbb5445342616eec4d38439ae972,PennController,13,0,experiment,NULL,Timer,RT,Start,Start,1743597106426,How often do you rely on the answers of chatbots without checking them?,experiment,NULL
1743597403,ce01bbb5445342616eec4d38439ae972,PennController,13,0,experiment,NULL,Timer,RT,End,End,1743597118564,How often do you rely on the answers of chatbots without checking them?,experiment,NULL
1743597403,ce01bbb5445342616eec4d38439ae972,PennController,13,0,experiment,NULL,MouseTracker,mouse,Click,850:440,1743597106430,How often do you rely on the answers of chatbots without checking them?,experiment,NULL
1743597403,ce01bbb5445342616eec4d38439ae972,PennController,13,0,experiment,NULL,MouseTracker,mouse,Click,846:337,1743597117759,How often do you rely on the answers of chatbots without checking them?,experiment,NULL
1743597403,ce01bbb5445342616eec4d38439ae972,PennController,13,0,experiment,NULL,MouseTracker,mouse,Click,846:337,1743597117762,How often do you rely on the answers of chatbots without checking them?,experiment,NULL
1743597403,ce01bbb5445342616eec4d38439ae972,PennController,13,0,experiment,NULL,MouseTracker,mouse,Move,x850y440w1699h907t10533+0-2t21-2-8t10-1-1t17+0-1t17+0-4t17-1-10t17-2-15t15-2-5t17+0-5t17-1-3t17-1-1t16+0-1t56+0-1t11+0-1t17+4-4t17+3-4t16+1+0t31+1-2t7+0-2t12+0-1t19-1-7t14-1-2t17-1-6t35-1-4t75+0-1t13+0-1t17+0-2t10+0-2t17+1-3t17+0-2t16+0-2t417-1+9t17-6+26t11-3+16t17-4+20t16-1+18t17-1+20t16+0+8t17+0+4t17+0+4t91+0+1t20+1+0t8+1+0t15+2+0t17+3-1t22+5-2t10+2-2t16+4-2t17+2-2t50+1+0,1743597106426,How often do you rely on the answers of chatbots without checking them?,experiment,NULL
1743597403,ce01bbb5445342616eec4d38439ae972,PennController,13,0,experiment,NULL,Scale,response,Choice,Sometimes,1743597117762,How often do you rely on the answers of chatbots without checking them?,experiment,NULL
1743597403,ce01bbb5445342616eec4d38439ae972,PennController,13,0,experiment,NULL,PennController,16,_Trial_,End,1743597118567,How often do you rely on the answers of chatbots without checking them?,experiment,NULL
1743597403,ce01bbb5445342616eec4d38439ae972,PennController,14,0,experiment,NULL,PennController,17,_Trial_,Start,1743597118568,How often do you receive suspicious emails or messages that might be phishing attempts?,filler,NULL
1743597403,ce01bbb5445342616eec4d38439ae972,PennController,14,0,experiment,NULL,Timer,RT,Start,Start,1743597118569,How often do you receive suspicious emails or messages that might be phishing attempts?,filler,NULL
1743597403,ce01bbb5445342616eec4d38439ae972,PennController,14,0,experiment,NULL,Timer,RT,End,End,1743597130931,How often do you receive suspicious emails or messages that might be phishing attempts?,filler,NULL
1743597403,ce01bbb5445342616eec4d38439ae972,PennController,14,0,experiment,NULL,MouseTracker,mouse,Click,851:454,1743597118573,How often do you receive suspicious emails or messages that might be phishing attempts?,filler,NULL
1743597403,ce01bbb5445342616eec4d38439ae972,PennController,14,0,experiment,NULL,MouseTracker,mouse,Click,841:346,1743597126048,How often do you receive suspicious emails or messages that might be phishing attempts?,filler,NULL
1743597403,ce01bbb5445342616eec4d38439ae972,PennController,14,0,experiment,NULL,MouseTracker,mouse,Click,711:343,1743597127521,How often do you receive suspicious emails or messages that might be phishing attempts?,filler,NULL
1743597403,ce01bbb5445342616eec4d38439ae972,PennController,14,0,experiment,NULL,MouseTracker,mouse,Click,706:352,1743597128688,How often do you receive suspicious emails or messages that might be phishing attempts?,filler,NULL
1743597403,ce01bbb5445342616eec4d38439ae972,PennController,14,0,experiment,NULL,MouseTracker,mouse,Click,690:344,1743597129264,How often do you receive suspicious emails or messages that might be phishing attempts?,filler,NULL
1743597403,ce01bbb5445342616eec4d38439ae972,PennController,14,0,experiment,NULL,MouseTracker,mouse,Click,838:482,1743597130283,How often do you receive suspicious emails or messages that might be phishing attempts?,filler,NULL
1743597403,ce01bbb5445342616eec4d38439ae972,PennController,14,0,experiment,NULL,MouseTracker,mouse,Move,x851y454w1699h907t6393-1-1t14-2-2t17-4-6t17-2-7t16+0-10t17-2-11t17+1-9t23+0-6t10+0-2t17+0-7t16+0-11t18-1-15t16+0-6t16+0-3t17+0-3t53+0-1t38+0-3t22+1-3t4+0-1t17+0-1t936+2+3t14+3+12t9+2+4t14+0+5t17+6+14t17+8+22t16+7+22t18+7+17t16+6+12t17+3+7t16+1+2t17+0+2t21+1+2t12+3+2t17+1+5t17+1+3t16+1+1t17+1+1t139-2-3t14-12-17t34-28-34t17-11-12t17-7-13t16-10-15t16-12-11t17-15-12t17-8-4t17-7-3t16-6-4t17-6-2t16-3-2t17-5+0t17-2+0t22-2+0t15-3+0t13-1+0t17-6+0t16-7+1t17-3+0t16-3+0t17-1+0t50-3-1t17-3-2t17-3-2t16-3+0t17-4-1t17-2-1t16-2+0t17-2+0t100-1+0t69+0-1t262+10+4t7+18+9t12+15+7t16+31+15t17+21+14t17+16+11t16+4+2t17+6+5t17+8+4t17+10+8t16+10+5t17+6+5t18+4+4t15+1+1t17+1+1t17+1+0t16+1+0t51-8-4t16-34-19t17-36-22t16-40-20t17-26-14t17-18-11t16-11-9t17-7-6t17-2-3t148+1+2t8+1+2t17+6+7t17+4+6t16+2+2t18+0+1t59+0+2t576-2+0t14-7-3t16-3-2t17-3-2t17-1-1t495+0-1t21+1-1t48+1+0t86+1+0t9+3+1t17+11+7t34+31+28t17+28+20t20+18+12t13+16+9t17+10+3t16+5+2t17+1+0t16+1+0t17+2+1t17+1+2t16+2+3t17+0+1t17+0+2t17+1+1t16+2+4t17+3+13t21+5+21t12+3+6t17+1+3t17+1+1t488+2+0t16+2-2t22+12-10t26+4-2t19+1-1t142+0-1,1743597118569,How often do you receive suspicious emails or messages that might be phishing attempts?,filler,NULL
1743597403,ce01bbb5445342616eec4d38439ae972,PennController,14,0,experiment,NULL,Scale,response,Choice,Sometimes,1743597126048,How often do you receive suspicious emails or messages that might be phishing attempts?,filler,NULL
1743597403,ce01bbb5445342616eec4d38439ae972,PennController,14,0,experiment,NULL,Scale,response,Choice,Few times,1743597129264,How often do you receive suspicious emails or messages that might be phishing attempts?,filler,NULL
1743597403,ce01bbb5445342616eec4d38439ae972,PennController,14,0,experiment,NULL,PennController,17,_Trial_,End,1743597130934,How often do you receive suspicious emails or messages that might be phishing attempts?,filler,NULL
1743597403,ce01bbb5445342616eec4d38439ae972,PennController,15,0,experiment,NULL,PennController,18,_Trial_,Start,1743597130935,How often do you send and receive messages or emails?,control,NULL
1743597403,ce01bbb5445342616eec4d38439ae972,PennController,15,0,experiment,NULL,Timer,RT,Start,Start,1743597130936,How often do you send and receive messages or emails?,control,NULL
1743597403,ce01bbb5445342616eec4d38439ae972,PennController,15,0,experiment,NULL,Timer,RT,End,End,1743597142087,How often do you send and receive messages or emails?,control,NULL
1743597403,ce01bbb5445342616eec4d38439ae972,PennController,15,0,experiment,NULL,MouseTracker,mouse,Click,859:466,1743597130939,How often do you send and receive messages or emails?,control,NULL
1743597403,ce01bbb5445342616eec4d38439ae972,PennController,15,0,experiment,NULL,MouseTracker,mouse,Click,1122:340,1743597139199,How often do you send and receive messages or emails?,control,NULL
1743597403,ce01bbb5445342616eec4d38439ae972,PennController,15,0,experiment,NULL,MouseTracker,mouse,Click,1114:353,1743597140534,How often do you send and receive messages or emails?,control,NULL
1743597403,ce01bbb5445342616eec4d38439ae972,PennController,15,0,experiment,NULL,MouseTracker,mouse,Move,x859y466w1699h907t5242+1-4t15+3-15t8+2-7t11+1-8t17+6-16t23+14-24t10+10-16t17+8-11t17+9-8t17+5-4t17+6+0t17+13+5t15+7+4t17+3+3t17+4+2t17+1+0t16+2+0t86+1+0t15+3+0t23+1+0t16+2+0t10+2+0t17+3+0t18+1+0t16+3+0t141-1+0t14-1+1t31-1+1t36-1+1t25+0+1t9-1+0t16-1+1t61-1+0t39-1+1t22+0+1t271+0-1t14+2-1t17+2-1t17+1-1t32+3+0t73+0-1t100+1+0t13+0-1t17+1+0t538+10-2t15+21-3t23+22-2t10+5+0t16+14+0t17+11+1t17+7+1t16+6+1t17+3+1t23+1+1t10+2+0t22+4+2t12+4+1t16+3+1t17+3+0t17+2+1t24+2+1t9+3+0t16+5+0t17+7-2t17+5-2t17+4-2t17+7-2t19+3-1t14+2+0t16+2-1t17+2+0t100+0-2t17-1-2t16-2-3t17-2-4t18-2-5t16-1-2t23-1-1t31+0-1t88+0-1t48+0-1t44-1+0t556+0+1t13-2+1t26-1+0t18-1+1t10-3+3t12-1+2t17-6+4t17-5+8t17-5+6t16-2+3t17-1+0t68-1+0t15+0+1t17+0+1t178+2-1t11+1-1t17+1-1t17+2-1t16+1+0t17+1-1t17+0-1t17+2-2t17+4-3t16+0-2t17+2-1t16+0-1t32+1-1t8+1+0t10+0-1t17+1+0t17+1+0t17+0-1t641+0+1t22-1+2t38-7+8t19-14+16t6-8+7t13-8+8t17-13+13t19-18+16t14-11+6t17-11+2t16-12+0t17-15-2t17-22-1t17-22+1t16-20+0t17-24+0t17-14+0t16-10+0t17-9+2t17-5+0t17-6+0t16-4+0t17-7+0t16-5+2t17-7+4t16-6+4t17-3+3t17+0+1t17-1+0t49+0+1t17+1+5t17+4+3t17+3+2t16+1+1t17+0+1t17+1+0t102+1+0t115+0+1,1743597130936,How often do you send and receive messages or emails?,control,NULL
1743597403,ce01bbb5445342616eec4d38439ae972,PennController,15,0,experiment,NULL,Scale,response,Choice,Really often,1743597140534,How often do you send and receive messages or emails?,control,NULL
1743597403,ce01bbb5445342616eec4d38439ae972,PennController,15,0,experiment,NULL,PennController,18,_Trial_,End,1743597142090,How often do you send and receive messages or emails?,control,NULL
1743597403,ce01bbb5445342616eec4d38439ae972,PennController,16,0,experiment,NULL,PennController,19,_Trial_,Start,1743597142091,When you have to create a password for a new account%2C how often do you use strong passwords (different from any other password you used in the past%2C with many special characters and really long)?,experiment,NULL
1743597403,ce01bbb5445342616eec4d38439ae972,PennController,16,0,experiment,NULL,Timer,RT,Start,Start,1743597142093,When you have to create a password for a new account%2C how often do you use strong passwords (different from any other password you used in the past%2C with many special characters and really long)?,experiment,NULL
1743597403,ce01bbb5445342616eec4d38439ae972,PennController,16,0,experiment,NULL,Timer,RT,End,End,1743597156853,When you have to create a password for a new account%2C how often do you use strong passwords (different from any other password you used in the past%2C with many special characters and really long)?,experiment,NULL
1743597403,ce01bbb5445342616eec4d38439ae972,PennController,16,0,experiment,NULL,MouseTracker,mouse,Click,842:460,1743597142096,When you have to create a password for a new account%2C how often do you use strong passwords (different from any other password you used in the past%2C with many special characters and really long)?,experiment,NULL
1743597403,ce01bbb5445342616eec4d38439ae972,PennController,16,0,experiment,NULL,MouseTracker,mouse,Click,567:337,1743597153749,When you have to create a password for a new account%2C how often do you use strong passwords (different from any other password you used in the past%2C with many special characters and really long)?,experiment,NULL
1743597403,ce01bbb5445342616eec4d38439ae972,PennController,16,0,experiment,NULL,MouseTracker,mouse,Click,567:337,1743597153751,When you have to create a password for a new account%2C how often do you use strong passwords (different from any other password you used in the past%2C with many special characters and really long)?,experiment,NULL
1743597403,ce01bbb5445342616eec4d38439ae972,PennController,16,0,experiment,NULL,MouseTracker,mouse,Move,x842y460w1699h907t10030-4+0t21-16-5t10-3-2t17-7-5t16-8-5t18-17-13t22-15-10t10-16-10t17-19-10t17-21-10t18-21-7t16-11-5t16-15-4t16-14-4t17-15-3t17-11-2t17-10-3t17-16-4t15-6-2t17-7-2t17-4-2t18+0-1t49+0-1t16+0-2t106-1+0t11-1-2t17-4-2t18-4-1t22-3-1t155-1+0t52-1-1t13+0-2t17-1-1t24-2-1t21-1+0t1018+4+1t13+17+5t17+20+9t17+19+12t17+20+13t16+21+14t16+25+24t17+18+17t17+29+33t17+28+32t17+16+21t16+15+19t16+17+23t17+6+4t391+2-1t14+6-4t17+4-4t17+4-1t17+2-2t17+2-2t17+4-2t15+2-2t17+1+0t17+2-2t19+1-1t102+1+0t12+1+0t17+0-1t16+1+0t22+1+0t22+1+0t8+1+0t15+0+2t17+3+3t16+0+1t17+0+2t17+0+1t257+0-5t14-1-5t17-2-7t17+0-3t16+0-1t17+0-2t17+2-6t16+4-7t17+4-4t16+2-3t17+5-4t17+3-2t17+2-1t16+2-1t103+0-2t14-1-6t17-5-9t16-8-7t17-8-9t17-6-6t17-5-5t17-2-2t16-1-2t24-2+0t23+0-1t101+0-1t40+1+0t45+0-1,1743597142093,When you have to create a password for a new account%2C how often do you use strong passwords (different from any other password you used in the past%2C with many special characters and really long)?,experiment,NULL
1743597403,ce01bbb5445342616eec4d38439ae972,PennController,16,0,experiment,NULL,Scale,response,Choice,Never,1743597153751,When you have to create a password for a new account%2C how often do you use strong passwords (different from any other password you used in the past%2C with many special characters and really long)?,experiment,NULL
1743597403,ce01bbb5445342616eec4d38439ae972,PennController,16,0,experiment,NULL,PennController,19,_Trial_,End,1743597156855,When you have to create a password for a new account%2C how often do you use strong passwords (different from any other password you used in the past%2C with many special characters and really long)?,experiment,NULL
1743597403,ce01bbb5445342616eec4d38439ae972,PennController,17,0,experiment,NULL,PennController,20,_Trial_,Start,1743597156857,How often do you accept all the cookies (including the non-necessary ones) while browsing the internet?,experiment,NULL
1743597403,ce01bbb5445342616eec4d38439ae972,PennController,17,0,experiment,NULL,Timer,RT,Start,Start,1743597156858,How often do you accept all the cookies (including the non-necessary ones) while browsing the internet?,experiment,NULL
1743597403,ce01bbb5445342616eec4d38439ae972,PennController,17,0,experiment,NULL,Timer,RT,End,End,1743597166633,How often do you accept all the cookies (including the non-necessary ones) while browsing the internet?,experiment,NULL
1743597403,ce01bbb5445342616eec4d38439ae972,PennController,17,0,experiment,NULL,MouseTracker,mouse,Click,845:449,1743597156860,How often do you accept all the cookies (including the non-necessary ones) while browsing the internet?,experiment,NULL
1743597403,ce01bbb5445342616eec4d38439ae972,PennController,17,0,experiment,NULL,MouseTracker,mouse,Click,1107:339,1743597163087,How often do you accept all the cookies (including the non-necessary ones) while browsing the internet?,experiment,NULL
1743597403,ce01bbb5445342616eec4d38439ae972,PennController,17,0,experiment,NULL,MouseTracker,mouse,Click,1122:342,1743597164052,How often do you accept all the cookies (including the non-necessary ones) while browsing the internet?,experiment,NULL
1743597403,ce01bbb5445342616eec4d38439ae972,PennController,17,0,experiment,NULL,MouseTracker,mouse,Move,x845y449w1699h907t429-1+0t15-1+0t17-3+0t16-4+0t17-4+0t17-3+0t17-4+0t17-3+0t16-8-1t17-12-1t17-10-2t16-10-2t17-8-1t17-10-2t16-12-2t17-10-2t17-17-5t16-10-3t17-9-2t16-5-1t17-2-2t17-1+0t3629+2-3t14+7-10t17+3-6t17+0-2t16+3-6t18+8-10t16+15-14t21+3-6t12+1-2t69+2-1t15+4-1t23+8-2t10+4+0t23+12+2t10+4+1t17+12+3t17+11+1t16+11+2t17+12+0t17+4+0t16+8-1t17+8-2t16+12+0t17+14-2t17+13+0t16+16+1t17+7+1t17+4+1t17+3+0t16+2+1t17+2+0t16+1+0t331+8+0t14+20+2t17+26-2t16+29-6t17+28-8t17+24-6t16+17-8t17+23-9t27+20-7t20+13-3t3+4-2t17+7-4t17+1-1t57+0-1t16+0-1t10-1-3t21-8-2t12-4-1t17-9+0t17-3+1t32-1+0t17-1+1t7-1+2t10-1+3t17-1+6t17+0+4t16+0+3t26+0+1t24+0+1t7+0+1t14-1+2t12+0+1t17+0+2t17-1+1t18+0+1t15+0+1t50+0+1t17+1+0t16+1+0t18+2+1t26+1+0t372-5+7t7-7+8t12-8+8t16-9+8t17-3+3t17-3+3t17-6+6t16-9+14t17-8+13t16-3+5t17-1+2t51+13-7t15+18-12t17+19-14t17+16-15t17+10-9t17+6-7t17+3-5t16+0-2t17+1+0t100+0-1t16-1-2t17-1+0t16-1-1t27-1+0t17-1+0t14-1+0t42-1+0t51-1+0t18-1+1t341-1+0t7+0+1t87-1+0t13+0+1t17-6+8t19-15+12t20-30+23t15-20+12t12-9+5t17-18+6t19-13+6t14-1+1t17-4+1t16-7+2t17-9+9t17-12+15t16-12+12t17-6+8t17-3+4t16-2+2t18-1+1t16-1+1t16-2+1t17-4+1t17-3+1t16-5+1t17-7+0t17-4+0t16-6+0t17-5+0t17-5+0t16-4+0t17-4-1t17-3+0t16-3+0t17-4+0t17-5+0t16-3+0t17-4+0t17-2+0t24-2+0t23-1+1t8-1+0t11-1+0t17-1+0t1114-2-2t79+0-1t8+0-1t14-2-2t66+0-2t17-1-2t16+0-1t18+0-1,1743597156858,How often do you accept all the cookies (including the non-necessary ones) while browsing the internet?,experiment,NULL
1743597403,ce01bbb5445342616eec4d38439ae972,PennController,17,0,experiment,NULL,Scale,response,Choice,Really often,1743597164052,How often do you accept all the cookies (including the non-necessary ones) while browsing the internet?,experiment,NULL
1743597403,ce01bbb5445342616eec4d38439ae972,PennController,17,0,experiment,NULL,PennController,20,_Trial_,End,1743597166637,How often do you accept all the cookies (including the non-necessary ones) while browsing the internet?,experiment,NULL
1743597403,ce01bbb5445342616eec4d38439ae972,PennController,18,0,experiment,NULL,PennController,21,_Trial_,Start,1743597166638,How often do you publicly share your online banking credentials on social media or public forums?,control,NULL
1743597403,ce01bbb5445342616eec4d38439ae972,PennController,18,0,experiment,NULL,Timer,RT,Start,Start,1743597166640,How often do you publicly share your online banking credentials on social media or public forums?,control,NULL
1743597403,ce01bbb5445342616eec4d38439ae972,PennController,18,0,experiment,NULL,Timer,RT,End,End,1743597182709,How often do you publicly share your online banking credentials on social media or public forums?,control,NULL
1743597403,ce01bbb5445342616eec4d38439ae972,PennController,18,0,experiment,NULL,MouseTracker,mouse,Click,867:464,1743597166643,How often do you publicly share your online banking credentials on social media or public forums?,control,NULL
1743597403,ce01bbb5445342616eec4d38439ae972,PennController,18,0,experiment,NULL,MouseTracker,mouse,Click,561:336,1743597181291,How often do you publicly share your online banking credentials on social media or public forums?,control,NULL
1743597403,ce01bbb5445342616eec4d38439ae972,PennController,18,0,experiment,NULL,MouseTracker,mouse,Click,561:336,1743597181293,How often do you publicly share your online banking credentials on social media or public forums?,control,NULL
1743597403,ce01bbb5445342616eec4d38439ae972,PennController,18,0,experiment,NULL,MouseTracker,mouse,Move,x867y464w1699h907t13386-9-1t14-27+0t17-29+0t17-28+0t17-25-1t16-24-4t17-19-4t16-28-11t17-10-5t17-24-14t16-14-9t17-12-8t16-9-5t17-7-3t17-10-3t16-8-2t17-6-4t17-9-3t17-9-7t16-10-10t17-10-20t16-4-8t17-2-3t17+0-1t17+0-2t73+0-1t13+4+0t14+1-1t19+3+0t22+4+0t86+1+0t7+1+0t23+1+0t9+1+0t17+1+0t20+1+0t94+1+0t13+1+0t15+2+0t9+2+0t16+0+1t16+2+1t30+1+0t717+3+2t15+10+8t30+18+14t15+22+20t8+9+6t14+6+6t17+12+10t16+15+7t17+22+11t17+18+6t16+16+7t18+16+6t16+16+4t16+6+0t17+5+0t16+3+0t17+4-1t17+4+0t17+6-2t16+6+0t16+8+2t17+6+0t17+3+1t17+5+1t17+3+0t17+5+3t15+2+1t17+4+2t17+1+0t17+1+1t17+0+1t16+2+0t17+2+2t24+1+0t9+1+0t17+2+0t17+3+0t17+2+0,1743597166640,How often do you publicly share your online banking credentials on social media or public forums?,control,NULL
1743597403,ce01bbb5445342616eec4d38439ae972,PennController,18,0,experiment,NULL,Scale,response,Choice,Never,1743597181293,How often do you publicly share your online banking credentials on social media or public forums?,control,NULL
1743597403,ce01bbb5445342616eec4d38439ae972,PennController,18,0,experiment,NULL,PennController,21,_Trial_,End,1743597182711,How often do you publicly share your online banking credentials on social media or public forums?,control,NULL
1743597403,ce01bbb5445342616eec4d38439ae972,PennController,19,0,experiment,NULL,PennController,22,_Trial_,Start,1743597182712,How often do you read (even only partially) the privacy policy of a website before accepting it?,experiment,NULL
1743597403,ce01bbb5445342616eec4d38439ae972,PennController,19,0,experiment,NULL,Timer,RT,Start,Start,1743597182713,How often do you read (even only partially) the privacy policy of a website before accepting it?,experiment,NULL
1743597403,ce01bbb5445342616eec4d38439ae972,PennController,19,0,experiment,NULL,Timer,RT,End,End,1743597191124,How often do you read (even only partially) the privacy policy of a website before accepting it?,experiment,NULL
1743597403,ce01bbb5445342616eec4d38439ae972,PennController,19,0,experiment,NULL,MouseTracker,mouse,Click,829:454,1743597182716,How often do you read (even only partially) the privacy policy of a website before accepting it?,experiment,NULL
1743597403,ce01bbb5445342616eec4d38439ae972,PennController,19,0,experiment,NULL,MouseTracker,mouse,Click,563:348,1743597189743,How often do you read (even only partially) the privacy policy of a website before accepting it?,experiment,NULL
1743597403,ce01bbb5445342616eec4d38439ae972,PennController,19,0,experiment,NULL,MouseTracker,mouse,Move,x829y454w1699h907t5658-5-3t14-16-11t17-17-10t17-21-10t17-23-10t16-24-12t17-23-11t16-26-14t17-30-22t17-17-14t17-11-10t16-8-7t17-4-4t17-6-4t16-4-2t17-4+0t17-7+0t16-7+2t17-5+1t18-5+2t15-4+3t17-4+2t17-3+3t17-2+3t17-1+0t16+0+1t93+0+1t15+0+4t8+0+2t17+4+6t22+4+6t12+2+1t24+0+1t102+1+0t811+0-2t15+1-3t16+0-3t132+1-1t5+2+0t14+4+0t17+21+9t16+17+9t16+21+13t17+34+19t17+44+23t17+53+26t16+43+21t18+34+15t22+13+9t10+7+6t17+4+6t17+3+3t18+1+4t16+1+0t49+2+2t16+5+3t17+7+3t18+13+4t26+4+0t59+0-2t14-2-4t17-12-20t21-10-11t17-7-9t31-3-2,1743597182713,How often do you read (even only partially) the privacy policy of a website before accepting it?,experiment,NULL
1743597403,ce01bbb5445342616eec4d38439ae972,PennController,19,0,experiment,NULL,Scale,response,Choice,Never,1743597189743,How often do you read (even only partially) the privacy policy of a website before accepting it?,experiment,NULL
1743597403,ce01bbb5445342616eec4d38439ae972,PennController,19,0,experiment,NULL,PennController,22,_Trial_,End,1743597191126,How often do you read (even only partially) the privacy policy of a website before accepting it?,experiment,NULL
1743597403,ce01bbb5445342616eec4d38439ae972,PennController,20,0,experiment,NULL,PennController,23,_Trial_,Start,1743597191127,How often do you watch tutorial videos or read guides to learn how to use new apps or digital tools?,filler,NULL
1743597403,ce01bbb5445342616eec4d38439ae972,PennController,20,0,experiment,NULL,Timer,RT,Start,Start,1743597191127,How often do you watch tutorial videos or read guides to learn how to use new apps or digital tools?,filler,NULL
1743597403,ce01bbb5445342616eec4d38439ae972,PennController,20,0,experiment,NULL,Timer,RT,End,End,1743597202480,How often do you watch tutorial videos or read guides to learn how to use new apps or digital tools?,filler,NULL
1743597403,ce01bbb5445342616eec4d38439ae972,PennController,20,0,experiment,NULL,MouseTracker,mouse,Click,864:466,1743597191130,How often do you watch tutorial videos or read guides to learn how to use new apps or digital tools?,filler,NULL
1743597403,ce01bbb5445342616eec4d38439ae972,PennController,20,0,experiment,NULL,MouseTracker,mouse,Click,976:338,1743597201564,How often do you watch tutorial videos or read guides to learn how to use new apps or digital tools?,filler,NULL
1743597403,ce01bbb5445342616eec4d38439ae972,PennController,20,0,experiment,NULL,MouseTracker,mouse,Click,976:338,1743597201566,How often do you watch tutorial videos or read guides to learn how to use new apps or digital tools?,filler,NULL
1743597403,ce01bbb5445342616eec4d38439ae972,PennController,20,0,experiment,NULL,MouseTracker,mouse,Move,x864y466w1699h907t6672-2-1t14-4-2t17-5-3t17-7-1t17-5-1t17-7-3t16-5-3t21-5-3t12-6-1t17-6-2t17-6-2t16-4-2t17-4-1t30-2-1t9-1-1t85+2+0t15+3+1t11+15+8t16+17+7t18+12+8t16+19+12t16+12+7t17+7+6t17+4+2t17+3+2t16+5+3t17+3+2t17+3+1t23+1+0t91-3+2t6-4+0t13-8+1t16-16-1t18-22-6t22-16-7t10-4-3t17-9-10t17-7-9t16-7-15t18-4-15t22-1-5t10+0-5t17-2-3t17-1-5t17-1-3t17-2-5t19+0-2t19-1-5t11+0-1t17-1-3t16-2-5t18-1-5t26+0-2t82-1-2t23+0-2t6+0-4t12+0-4t17+0-6t17+0-5t16+0-13t17-1-10t16-1-10t17-1-7t17-2-9t17-1-8t17-1-9t16-3-13t23-1-8t10-1-4t17+0-5t17-1-3t17-1-2t16+0-4t17+0-3t17+0-5t16+1-3t17+4-4t17+3-5t16+6-4t16+4+0t18+13-1t16+13+4t16+10+8t17+16+10t17+12+3t17+12+0t16+14+2t17+13-1t17+19-2t16+22-2t17+34-5t17+18-4t16+17-2t17+7+0t17+16-2t16+7+0t17+6+0t16+10-3t17+7-1t17+4-1t17+6-1t17+2-1t16+4-1t16+7-2t17+8-2t17+3+0t17+2+0t16+2+0t491+2+0t14+9+0t16+9-2t17+10-3t17+8-6t16+5-3t17+4-4t17+1-1t16+1-1t17-2-6t17-7-9t16-15-9t17-14-6t17-19-6t16-16-1t17-10+1t17-7+1t16-3+4t17-2+3t17+0+6t16+3+5t17+7+5t18+21+6t15+11+0t17+18-5t18+21-8t16+18-9t16+11-8t17+6-2t50-6+0t17-24+5t16-25+7t17-26+6t17-25+10t16-22+10t17-13+8t17-10+12t16-5+5t17-2+7t16-2+5t17+0+3t17-1+2t16+0+4t17-2+4t17-2+4t17+0+2t17-1+2t16-2+5t17+0+9t16-4+16t16-2+10t18-2+7t16-1+5t17-1+1t17+0+1t16-1+0t17-1+2t16-2+5t17-4+3t16-2+4t18-1+1t18-1+1t414+2+11t17+2+35t10+0+14t17-4+37t16-9+29t24-25+46t9-7+9t17-15+13t17-10+6t16-8+4t17-4+0t17-4-1t16-8-8t17-4-11t17-3-11t16-4-10t17-1-9t17-2-7t16+0-7t17+0-16t17+2-12t16+2-6t17+2-4,1743597191127,How often do you watch tutorial videos or read guides to learn how to use new apps or digital tools?,filler,NULL
1743597403,ce01bbb5445342616eec4d38439ae972,PennController,20,0,experiment,NULL,Scale,response,Choice,Often,1743597201567,How often do you watch tutorial videos or read guides to learn how to use new apps or digital tools?,filler,NULL
1743597403,ce01bbb5445342616eec4d38439ae972,PennController,20,0,experiment,NULL,PennController,23,_Trial_,End,1743597202483,How often do you watch tutorial videos or read guides to learn how to use new apps or digital tools?,filler,NULL
1743597403,ce01bbb5445342616eec4d38439ae972,PennController,21,0,experiment,NULL,PennController,24,_Trial_,Start,1743597202485,How often do you deploy 2-factor authentication (2FA)?,experiment,NULL
1743597403,ce01bbb5445342616eec4d38439ae972,PennController,21,0,experiment,NULL,Timer,RT,Start,Start,1743597202485,How often do you deploy 2-factor authentication (2FA)?,experiment,NULL
1743597403,ce01bbb5445342616eec4d38439ae972,PennController,21,0,experiment,NULL,Timer,RT,End,End,1743597209345,How often do you deploy 2-factor authentication (2FA)?,experiment,NULL
1743597403,ce01bbb5445342616eec4d38439ae972,PennController,21,0,experiment,NULL,MouseTracker,mouse,Click,878:440,1743597202490,How often do you deploy 2-factor authentication (2FA)?,experiment,NULL
1743597403,ce01bbb5445342616eec4d38439ae972,PennController,21,0,experiment,NULL,MouseTracker,mouse,Click,862:334,1743597208397,How often do you deploy 2-factor authentication (2FA)?,experiment,NULL
1743597403,ce01bbb5445342616eec4d38439ae972,PennController,21,0,experiment,NULL,MouseTracker,mouse,Click,862:334,1743597208399,How often do you deploy 2-factor authentication (2FA)?,experiment,NULL
1743597403,ce01bbb5445342616eec4d38439ae972,PennController,21,0,experiment,NULL,MouseTracker,mouse,Move,x878y440w1699h907t212+8+0t14+24+1t8+14+0t13+12+0t17+24+3t16+25+4t17+27+10t17+13+6t17+11+6t16+11+5t17+9+5t17+9+4t19+3+4t14+1+2t2283-1+1t14-11+2t21-24+8t12-7+2t31-28+11t5-6+2t14-8+2t18-10+0t486-7+0t13-13-1t21-10-1t11-16-2t17-17-2t17-15-6t17-15-10t16-16-11t17-21-21t16-10-12t17-10-20t17-7-25t17-5-25t17-6-42t16+0-22t17+0-22t16+1-18t17+3-11t17+2-7t17+7-13t16+3-5t17+16-19t16+14-14t17+11-11t17+10-9t16+7-7t17+4-3t16+6-5t17+5-1t17+7+0t17+6+1t16+8+3t17+6+3t17+2+2t16+4+2t17+2+2t17+1+0t16+1+1t150+0+1t21-3+2t11-1+1t17-5+1t16-5+0t17-2+0t17-2+0t248+3+0t14+9-1t17+13-2t17+11+0t17+11+0t17+11+1t16+12+2t24+12+0t9+1+0t17+3+0t16+1+0t17+1+0t96-1-2t8-2-1t13-1-1t16-6-3t18-12-1t17-8+0t15-8+0t23-12+2t11-4+0t17-7+2t16-6+3t17-5+2t16-6+7t17-4+7t17-2+11t17-1+9t16+0+8t17+1+8t16+2+6t17+1+4t17+1+7t17+1+4t16+1+2t17+0+2t17+0+2t17-1+2t70-1+1t12+0+1t18+0+2t20+0+2t19+0+1t15+0+1t15-2+0t14-3+2t17-10+2t17-24+0t16-17+2t16-16+2t17-10+5t16-6+2t17-3+1t17-1+0t64+1+1t6+3+5t13+3+3t17+8+10t18+9+10t17+4+5t15+2+2t17+2+1t102+0+1t432+0+5t30+0+18t17-2+9t16+0+10t17+0+11t17-1+6t17+0+7t16-1+4t16-1+3t17-1+5t17+0+7t16-2+3t17+0+3t16+0+1t127-1+1t40+0+2t17+0+4t17+0+6t23+1+7t19+0+4t9+0+2t15+1+2t17+0+1t17+0+1t168+1+0,1743597202485,How often do you deploy 2-factor authentication (2FA)?,experiment,NULL
1743597403,ce01bbb5445342616eec4d38439ae972,PennController,21,0,experiment,NULL,Scale,response,Choice,Sometimes,1743597208399,How often do you deploy 2-factor authentication (2FA)?,experiment,NULL
1743597403,ce01bbb5445342616eec4d38439ae972,PennController,21,0,experiment,NULL,PennController,24,_Trial_,End,1743597209347,How often do you deploy 2-factor authentication (2FA)?,experiment,NULL
# 13. Comments.
1743597403,ce01bbb5445342616eec4d38439ae972,PennController,22,0,manipulation-check-start,NULL,PennController,5,_Trial_,Start,1743597209349,NULL
1743597403,ce01bbb5445342616eec4d38439ae972,PennController,22,0,manipulation-check-start,NULL,PennController,5,_Trial_,End,1743597216580,NULL
1743597403,ce01bbb5445342616eec4d38439ae972,PennController,23,0,manipulation-check,NULL,PennController,6,_Trial_,Start,1743597216581,NULL
1743597403,ce01bbb5445342616eec4d38439ae972,PennController,23,0,manipulation-check,NULL,Scale,response,Choice,Agree,1743597221371,NULL
1743597403,ce01bbb5445342616eec4d38439ae972,PennController,23,0,manipulation-check,NULL,PennController,6,_Trial_,End,1743597222457,NULL
1743597403,ce01bbb5445342616eec4d38439ae972,PennController,24,0,sd-bias-start,NULL,PennController,7,_Trial_,Start,1743597222458,NULL
1743597403,ce01bbb5445342616eec4d38439ae972,PennController,24,0,sd-bias-start,NULL,PennController,7,_Trial_,End,1743597226772,NULL
1743597403,ce01bbb5445342616eec4d38439ae972,PennController,25,0,sd-bias,NULL,PennController,25,_Trial_,Start,1743597226774,NULL
1743597403,ce01bbb5445342616eec4d38439ae972,PennController,25,0,sd-bias,NULL,Scale,response,Choice,True,1743597254990,NULL
1743597403,ce01bbb5445342616eec4d38439ae972,PennController,25,0,sd-bias,NULL,PennController,25,_Trial_,End,1743597257152,NULL
1743597403,ce01bbb5445342616eec4d38439ae972,PennController,26,0,sd-bias,NULL,PennController,26,_Trial_,Start,1743597257153,NULL
1743597403,ce01bbb5445342616eec4d38439ae972,PennController,26,0,sd-bias,NULL,Scale,response,Choice,True,1743597265208,NULL
1743597403,ce01bbb5445342616eec4d38439ae972,PennController,26,0,sd-bias,NULL,PennController,26,_Trial_,End,1743597265882,NULL
1743597403,ce01bbb5445342616eec4d38439ae972,PennController,27,0,sd-bias,NULL,PennController,27,_Trial_,Start,1743597265883,NULL
1743597403,ce01bbb5445342616eec4d38439ae972,PennController,27,0,sd-bias,NULL,Scale,response,Choice,False,1743597276276,NULL
1743597403,ce01bbb5445342616eec4d38439ae972,PennController,27,0,sd-bias,NULL,PennController,27,_Trial_,End,1743597277950,NULL
1743597403,ce01bbb5445342616eec4d38439ae972,PennController,28,0,sd-bias,NULL,PennController,28,_Trial_,Start,1743597277951,NULL
1743597403,ce01bbb5445342616eec4d38439ae972,PennController,28,0,sd-bias,NULL,Scale,response,Choice,False,1743597289515,NULL
1743597403,ce01bbb5445342616eec4d38439ae972,PennController,28,0,sd-bias,NULL,PennController,28,_Trial_,End,1743597290833,NULL
1743597403,ce01bbb5445342616eec4d38439ae972,PennController,29,0,sd-bias,NULL,PennController,29,_Trial_,Start,1743597290833,NULL
1743597403,ce01bbb5445342616eec4d38439ae972,PennController,29,0,sd-bias,NULL,Scale,response,Choice,True,1743597294951,NULL
1743597403,ce01bbb5445342616eec4d38439ae972,PennController,29,0,sd-bias,NULL,PennController,29,_Trial_,End,1743597297198,NULL
1743597403,ce01bbb5445342616eec4d38439ae972,PennController,30,0,sd-bias,NULL,PennController,30,_Trial_,Start,1743597297199,NULL
1743597403,ce01bbb5445342616eec4d38439ae972,PennController,30,0,sd-bias,NULL,Scale,response,Choice,True,1743597317972,NULL
1743597403,ce01bbb5445342616eec4d38439ae972,PennController,30,0,sd-bias,NULL,PennController,30,_Trial_,End,1743597319131,NULL
1743597403,ce01bbb5445342616eec4d38439ae972,PennController,31,0,sd-bias,NULL,PennController,31,_Trial_,Start,1743597319133,NULL
1743597403,ce01bbb5445342616eec4d38439ae972,PennController,31,0,sd-bias,NULL,Scale,response,Choice,False,1743597326263,NULL
1743597403,ce01bbb5445342616eec4d38439ae972,PennController,31,0,sd-bias,NULL,PennController,31,_Trial_,End,1743597327034,NULL
1743597403,ce01bbb5445342616eec4d38439ae972,PennController,32,0,sd-bias,NULL,PennController,32,_Trial_,Start,1743597327035,NULL
1743597403,ce01bbb5445342616eec4d38439ae972,PennController,32,0,sd-bias,NULL,Scale,response,Choice,False,1743597342788,NULL
1743597403,ce01bbb5445342616eec4d38439ae972,PennController,32,0,sd-bias,NULL,PennController,32,_Trial_,End,1743597344023,NULL
1743597403,ce01bbb5445342616eec4d38439ae972,PennController,33,0,sd-bias,NULL,PennController,33,_Trial_,Start,1743597344024,NULL
1743597403,ce01bbb5445342616eec4d38439ae972,PennController,33,0,sd-bias,NULL,Scale,response,Choice,False,1743597360721,NULL
1743597403,ce01bbb5445342616eec4d38439ae972,PennController,33,0,sd-bias,NULL,PennController,33,_Trial_,End,1743597361893,NULL
1743597403,ce01bbb5445342616eec4d38439ae972,PennController,34,0,sd-bias,NULL,PennController,34,_Trial_,Start,1743597361893,NULL
1743597403,ce01bbb5445342616eec4d38439ae972,PennController,34,0,sd-bias,NULL,Scale,response,Choice,True,1743597373015,NULL
1743597403,ce01bbb5445342616eec4d38439ae972,PennController,34,0,sd-bias,NULL,PennController,34,_Trial_,End,1743597374046,NULL
1743597403,ce01bbb5445342616eec4d38439ae972,PennController,35,0,sd-bias,NULL,PennController,35,_Trial_,Start,1743597374047,NULL
1743597403,ce01bbb5445342616eec4d38439ae972,PennController,35,0,sd-bias,NULL,Scale,response,Choice,True,1743597383019,NULL
1743597403,ce01bbb5445342616eec4d38439ae972,PennController,35,0,sd-bias,NULL,PennController,35,_Trial_,End,1743597384265,NULL
1743597403,ce01bbb5445342616eec4d38439ae972,PennController,36,0,sd-bias,NULL,PennController,36,_Trial_,Start,1743597384266,NULL
1743597403,ce01bbb5445342616eec4d38439ae972,PennController,36,0,sd-bias,NULL,Scale,response,Choice,False,1743597392391,NULL
1743597403,ce01bbb5445342616eec4d38439ae972,PennController,36,0,sd-bias,NULL,PennController,36,_Trial_,End,1743597393311,NULL
1743597403,ce01bbb5445342616eec4d38439ae972,PennController,37,0,sd-bias,NULL,PennController,37,_Trial_,Start,1743597393312,NULL
1743597403,ce01bbb5445342616eec4d38439ae972,PennController,37,0,sd-bias,NULL,Scale,response,Choice,False,1743597400994,NULL
1743597403,ce01bbb5445342616eec4d38439ae972,PennController,37,0,sd-bias,NULL,PennController,37,_Trial_,End,1743597402481,NULL
#
# Results on Thu, 03 Apr 2025 12:10:00 GMT
# USER AGENT: Mozilla/5.0 (Macintosh; Intel Mac OS X 10_15_7) AppleWebKit/537.36 (KHTML, like Gecko) Chrome/134.0.0.0 Safari/537.36
# Design number was non-random = 2
#
# Columns below this comment are as follows:
# 1. Results reception time.
# 2. MD5 hash of participant's IP address.
# 3. Controller name.
# 4. Order number of item.
# 5. Inner element number.
# 6. Label.
# 7. Latin Square Group.
# 8. PennElementType.
# 9. PennElementName.
# 10. Parameter.
# 11. Value.
# 12. EventTime.
# 13. Comments.
1743682200,4dd6656c0a6e1460a321a02637cf74ea,PennController,1,0,intro,NULL,PennController,0,_Trial_,Start,1743681782034,NULL
1743682200,4dd6656c0a6e1460a321a02637cf74ea,PennController,1,0,intro,NULL,PennController,0,_Trial_,End,1743681783534,NULL
1743682200,4dd6656c0a6e1460a321a02637cf74ea,PennController,2,0,consent-low-sd,NULL,PennController,1,_Trial_,Start,1743681783537,NULL
1743682200,4dd6656c0a6e1460a321a02637cf74ea,PennController,2,0,consent-low-sd,NULL,PennController,1,_Trial_,End,1743681795236,NULL
# 13. age.
# 14. gender.
# 15. occupation.
# 16. nationality.
# 17. Comments.
1743682200,4dd6656c0a6e1460a321a02637cf74ea,PennController,3,0,personal-info,NULL,PennController,2,_Trial_,Start,1743681795238, 22,Male,Software Engineer,Peru,NULL
1743682200,4dd6656c0a6e1460a321a02637cf74ea,PennController,3,0,personal-info,NULL,PennController,2,_Trial_,End,1743681837285, 22,Male,Software Engineer,Peru,NULL
# 13. Comments.
1743682200,4dd6656c0a6e1460a321a02637cf74ea,PennController,4,0,trial-start,NULL,PennController,3,_Trial_,Start,1743681837287,NULL
1743682200,4dd6656c0a6e1460a321a02637cf74ea,PennController,4,0,trial-start,NULL,PennController,3,_Trial_,End,1743681852976,NULL
1743682200,4dd6656c0a6e1460a321a02637cf74ea,PennController,5,0,trial,NULL,PennController,9,_Trial_,Start,1743681852978,NULL
1743682200,4dd6656c0a6e1460a321a02637cf74ea,PennController,5,0,trial,NULL,PennController,9,_Trial_,End,1743681862034,NULL
1743682200,4dd6656c0a6e1460a321a02637cf74ea,PennController,6,0,trial,NULL,PennController,10,_Trial_,Start,1743681862036,NULL
1743682200,4dd6656c0a6e1460a321a02637cf74ea,PennController,6,0,trial,NULL,PennController,10,_Trial_,End,1743681872248,NULL
1743682200,4dd6656c0a6e1460a321a02637cf74ea,PennController,7,0,trial,NULL,PennController,11,_Trial_,Start,1743681872249,NULL
1743682200,4dd6656c0a6e1460a321a02637cf74ea,PennController,7,0,trial,NULL,PennController,11,_Trial_,End,1743681880678,NULL
1743682200,4dd6656c0a6e1460a321a02637cf74ea,PennController,8,0,experiment-start-low-sd,NULL,PennController,4,_Trial_,Start,1743681880680,NULL
1743682200,4dd6656c0a6e1460a321a02637cf74ea,PennController,8,0,experiment-start-low-sd,NULL,PennController,4,_Trial_,End,1743681904185,NULL
# 13. question.
# 14. type.
# 15. Comments.
1743682200,4dd6656c0a6e1460a321a02637cf74ea,PennController,9,0,experiment,NULL,PennController,12,_Trial_,Start,1743681904186,How often do you share personal and sensitive information with chatbots (e.g. sexual orientation%2C healthcare data)?,experiment,NULL
1743682200,4dd6656c0a6e1460a321a02637cf74ea,PennController,9,0,experiment,NULL,Timer,RT,Start,Start,1743681904187,How often do you share personal and sensitive information with chatbots (e.g. sexual orientation%2C healthcare data)?,experiment,NULL
1743682200,4dd6656c0a6e1460a321a02637cf74ea,PennController,9,0,experiment,NULL,Timer,RT,End,End,1743681912493,How often do you share personal and sensitive information with chatbots (e.g. sexual orientation%2C healthcare data)?,experiment,NULL
1743682200,4dd6656c0a6e1460a321a02637cf74ea,PennController,9,0,experiment,NULL,MouseTracker,mouse,Click,750:472,1743681904192,How often do you share personal and sensitive information with chatbots (e.g. sexual orientation%2C healthcare data)?,experiment,NULL
1743682200,4dd6656c0a6e1460a321a02637cf74ea,PennController,9,0,experiment,NULL,MouseTracker,mouse,Click,1166:189,1743681907422,How often do you share personal and sensitive information with chatbots (e.g. sexual orientation%2C healthcare data)?,experiment,NULL
1743682200,4dd6656c0a6e1460a321a02637cf74ea,PennController,9,0,experiment,NULL,MouseTracker,mouse,Click,1194:186,1743681909059,How often do you share personal and sensitive information with chatbots (e.g. sexual orientation%2C healthcare data)?,experiment,NULL
1743682200,4dd6656c0a6e1460a321a02637cf74ea,PennController,9,0,experiment,NULL,MouseTracker,mouse,Click,610:349,1743681910167,How often do you share personal and sensitive information with chatbots (e.g. sexual orientation%2C healthcare data)?,experiment,NULL
1743682200,4dd6656c0a6e1460a321a02637cf74ea,PennController,9,0,experiment,NULL,MouseTracker,mouse,Click,602:346,1743681911698,How often do you share personal and sensitive information with chatbots (e.g. sexual orientation%2C healthcare data)?,experiment,NULL
1743682200,4dd6656c0a6e1460a321a02637cf74ea,PennController,9,0,experiment,NULL,MouseTracker,mouse,Move,x750y472w1512h823t403+0+0t6-1-1t9-5-3t8-7-6t8-6-5t8-7-5t10-8-6t7-8-5t8-13-9t9-13-9t8-12-7t8-11-7t9-6-4t8-17-10t8-12-8t9-9-8t8-8-7t8-4-4t8-7-8t9-9-10t9-12-13t8-7-8t9-6-7t7-7-6t8-5-7t9-5-6t8-3-4t8-2-2t9-6-6t8-5-4t9-6-4t8-5-3t9-3-2t8-10-5t8-7-4t9-10-5t8-9-4t8-7-4t8-7-3t9-7-5t8-8-5t8-9-6t9-6-3t8-3-2t8-8-5t9-8-3t8-9-5t8-13-6t8-3-1t9-5-2t8-3-2t9-3-2t8-2-2t8-2-1t9+0+0t8+0-1t9-2-1t8+0-1t8-1-1t9+0+0t8+0-1t8-1-1t9-1-1t8+0-1t11-1-1t5+0-1t8+0-1t9-1-1t8-1-2t8-1+0t9-2-2t8-2-2t8-2-1t9-2-1t8+0-1t10-2-1t7-1+0t8-1-1t9-1+0t8-1-1t8-3-2t9-1-1t8-2-1t8-1-1t9-1+0t8-1-1t8-1+0t9+0+0t468+2+0t7+1+0t8+5+0t8+5+0t8+7+0t9+11+1t8+10+0t8+16+0t9+17+1t8+18+1t8+18+1t9+17+1t8+19+1t8+20+0t9+17+0t8+16+1t8+17+0t9+17+0t8+21+0t9+11+1t7+16+0t9+21+0t8+12+1t9+15+0t8+15+0t8+12+0t9+11+0t8+12+0t8+13+0t9+15+0t8+12+1t8+10+0t9+5+0t8+15+1t8+11+0t9+12+0t8+10+1t8+10+0t9+11+0t8+12+0t17+23+1t8+11+0t8+11+1t9+12+0t8+11+1t8+10+0t18+11+0t8+11+0t8+2+0t13+19+0t4+3+0t7+4+0t9+12+1t9+5+0t8+16+1t8+10+0t9+9+0t8+5+1t9+9+0t8+9+0t8+6+0t8+5+0t9+6+0t8+6+0t8+4+0t9+3+0t8+1+0t9+2+0t8+4+0t8+3+0t8+1+0t9+2+0t8+3+0t8+6+0t9+4+0t8+2+1t9+4+0t8+1+0t8+2+0t9+4+0t8+2+0t8+2+0t9+1+0t7+1+0t9+2+0t8+4+0t9+3+0t8+4-1t8+2+0t9+2+0t8+1+0t8+2+0t8+1+0t9+0+0t8+1+0t8+0+0t9+1+0t8+0+0t9+0+0t58+0+0t8+1+0t8+0+0t9+1-1t8+0+0t8+1+0t9+0+0t8+1+0t9+0-1t8+0+0t8+1+0t8+1+0t9+0+0t9+0+0t8+0+0t8+0+0t8+1+0t9+0+0t8+0+0t8+0+0t1315+1+0t6+1+0t8+2-1t9+2+0t8+5+0t8+2+0t9+2+0t8+1-1t9+0+0t8+1+0t8+1+0t9+2+0t8+1+0t8+2-1t9+0+0t8+2+0t8+1+0t9+0+0t8+1+0t8+0+0t9+1+0t8+0+0t8+0+0t735-1+0t31+0+0t9-1+0t9-4+1t8-4+1t8-5+2t5-3+2t7-5+3t8-5+3t8-8+6t8-7+5t8-8+5t8-8+6t8-9+8t7-11+10t8-6+4t8-11+8t8-15+11t8-17+11t9-32+19t10-17+10t10-14+8t9-13+8t8-14+7t9-23+12t8-8+4t9-15+6t8-28+9t8-20+6t9-15+4t8-15+4t8-16+3t9-13+2t7-8+1t9-17+1t8-13+1t10-15+2t7-17+1t9-23+1t8-8+0t9-5+0t7-4+0t9-2+0t9-2+0t26+0+0t7+0+0t9+0+0t8-1+0t8+0+0t72-1+0t3+0+0t8-1-1t8-1-1t8-1-1t9-3-3t8+0-1t8-4-2t10-3-2t8-7-4t7-3-1t9-7-3t8-7-2t8-11-4t9-11-2t9-8-2t8-8-1t8-7-1t9-7+0t7-2+0t9-1-1t9-1+0t84+0+0t7-1+0t9+0+0t7-1+0t10-1+0t7+0+0t25+0+0t8+0+0t9-1+0t368+0+0t8+0+1t7+0+0t9+3+4t8+1+2t9+5+7t8+5+6t7+2+3t9+5+6t9+4+5t8+6+7t9+3+4t8+4+5t8+4+3t9+3+3t8+4+3t8+4+4t9+3+3t7+1+1t9+4+4t9+1+1t8+4+3t8+1+2t9+1+0t8+1+2t8+1+0t9+2+2t8+0+0t8+0+0t39+0+0t4+0-1t8-1+0t8-1-2t9-5-4t7-3-2t9-6-6t8-3-3t8-2-2t9-3-4t8-3-5t8-1-3t9-2-4t8-3-5t8-1-1t9-2-4t7-1-1t9-1-2t9+0-1t8+0-1t8+0-1t9-1-1t8+0-1t8+0-1t9-1-1t8-1-1t8-1-1t9-1-1t8-2-2t7-2-1t10-1+0t9-3-2t8+0-1t7-2+0t8+0-1t9+0+0t9+0+0t8-1+0t9+0+0t7-1-1t8+0+0t9+0+0t9-1-1t8-1+0t8+0+0t9-1-1t8-1+0t8+0+0t8+0+0t9-2+0t8-1-1t9-4+0t8-1+0t8-4-1t8-2+0t8-1+0t9-2-1t8-1+0t8-1+0t9-1-1t9+0+0t7+0+0t9-1+0t9-1-1t7-1+0t9+0+0t9+0+0t8-1+0t10+0+0t7+0+0t25+0-1t9+0+0t11+0+0t5+0+0t9-1+0t7+0+0t10+0+0t58+0+0t7+0-1t9+0+0t24+0+0t9+0+0t9+0-1t8+1-1t8+0+0t8+1-2t9+0-1t8+0+0t9+0+0t8+0+0t8+1-1t9+0+0t8+0+0t9+0+0t8+0-1t8+0+0t8+0+0t9+1-1t463-1+1t7+0+4t8-1+2t9+0+1t8+0+0t8+0+0t9+0+0t42+0+1t8+0+0t8+0+0t9+1+1t8+3+1t8+1+0t8+7+3t9+5+3t8+7+3t8+9+4t9+5+3t9+15+9t7+5+3t9+17+11t8+12+8t8+7+5t9+14+10t8+11+7t8+9+6t9+8+5t8+4+3t8+3+3t8+3+3t8+0+2t10+2+3t9+1+2t7+0+1t9+1+3t8+1+1t7+0+1t44+0+0t6+0+0t5+1+0t9+1+0,1743681904187,How often do you share personal and sensitive information with chatbots (e.g. sexual orientation%2C healthcare data)?,experiment,NULL
1743682200,4dd6656c0a6e1460a321a02637cf74ea,PennController,9,0,experiment,NULL,Scale,response,Choice,Few times,1743681911698,How often do you share personal and sensitive information with chatbots (e.g. sexual orientation%2C healthcare data)?,experiment,NULL
1743682200,4dd6656c0a6e1460a321a02637cf74ea,PennController,9,0,experiment,NULL,PennController,12,_Trial_,End,1743681912495,How often do you share personal and sensitive information with chatbots (e.g. sexual orientation%2C healthcare data)?,experiment,NULL
1743682200,4dd6656c0a6e1460a321a02637cf74ea,PennController,10,0,experiment,NULL,PennController,13,_Trial_,Start,1743681912499,How often do you ask chatbots for advice in topics related to your personal life (e.g. relationships%2C emotions%2C feelings)?,experiment,NULL
1743682200,4dd6656c0a6e1460a321a02637cf74ea,PennController,10,0,experiment,NULL,Timer,RT,Start,Start,1743681912499,How often do you ask chatbots for advice in topics related to your personal life (e.g. relationships%2C emotions%2C feelings)?,experiment,NULL
1743682200,4dd6656c0a6e1460a321a02637cf74ea,PennController,10,0,experiment,NULL,Timer,RT,End,End,1743681918703,How often do you ask chatbots for advice in topics related to your personal life (e.g. relationships%2C emotions%2C feelings)?,experiment,NULL
1743682200,4dd6656c0a6e1460a321a02637cf74ea,PennController,10,0,experiment,NULL,MouseTracker,mouse,Click,753:459,1743681912502,How often do you ask chatbots for advice in topics related to your personal life (e.g. relationships%2C emotions%2C feelings)?,experiment,NULL
1743682200,4dd6656c0a6e1460a321a02637cf74ea,PennController,10,0,experiment,NULL,MouseTracker,mouse,Click,1222:190,1743681914712,How often do you ask chatbots for advice in topics related to your personal life (e.g. relationships%2C emotions%2C feelings)?,experiment,NULL
1743682200,4dd6656c0a6e1460a321a02637cf74ea,PennController,10,0,experiment,NULL,MouseTracker,mouse,Click,1220:182,1743681915657,How often do you ask chatbots for advice in topics related to your personal life (e.g. relationships%2C emotions%2C feelings)?,experiment,NULL
1743682200,4dd6656c0a6e1460a321a02637cf74ea,PennController,10,0,experiment,NULL,MouseTracker,mouse,Click,604:353,1743681917325,How often do you ask chatbots for advice in topics related to your personal life (e.g. relationships%2C emotions%2C feelings)?,experiment,NULL
1743682200,4dd6656c0a6e1460a321a02637cf74ea,PennController,10,0,experiment,NULL,MouseTracker,mouse,Move,x753y459w1512h823t312-1+0t10-2-2t8-3-3t8-2-2t9-7-6t8-8-6t9-11-7t8-12-9t8-6-4t9-21-14t7-13-9t9-18-12t8-17-12t9-12-8t8-12-8t9-12-9t8-13-11t8-14-11t8-11-8t9-10-7t9-10-7t8-10-6t8-9-6t9-7-5t8-4-3t8-3-2t8-7-3t9-6-2t9-6-2t7-3-1t9-4-1t8-2-1t9-6-1t8-4-2t8-3-1t8-2-2t9-3-2t9-4-2t7-4-3t9-2-1t8-7-4t9-3-2t7-11-7t9-8-4t9-7-3t7-6-4t9-7-3t8-5-4t8-5-4t9-4-3t8-3-3t9-3-3t8-4-4t8-2-2t9-5-5t8-3-2t8-3-3t9-2-3t8-3-4t8-3-2t9-1-2t8-2-2t8+0+0t8-2-2t9-1-2t8+0-1t8-1-1t9+0-1t8-1+0t13+0-1t4+0+0t8+0+0t9+0+0t26+0+0t7+0+0t8+0-1t8+0+0t218-1+1t7-2+1t9-3+1t9-1+1t7-2+1t9+0+0t8-1+0t8+0+0t9+0+0t142+0+0t8+0+0t8+0+0t13+1+0t4+1+0t8+2+0t8+4+0t9+5+0t8+12-1t8+13-1t9+18+0t8+19+0t8+21+0t9+27+1t7+15+1t9+41+1t9+25+0t8+25+1t8+25+1t9+25+0t8+25+1t8+25+1t9+20+0t8+18+0t8+22+0t8+12+1t9+31+0t8+19+0t9+10+0t8+26+1t8+18+0t9+17+1t9+16+0t8+14+0t8+15+0t8+14+0t9+14+0t12+5+0t4+17+0t10+17+0t13+26+0t3+8+0t7+16+0t9+13+0t9+13+0t8+15+0t8+12+0t8+10+0t8+9+0t9+9+0t9+8+0t7+7+0t9+6+0t8+11+0t9+9+0t8+9+0t9+9+0t8+8+0t8+6+0t9+6+0t8+7+0t8+2+0t9+4+0t8+3+0t8+5+1t8+4+0t9+4+0t8+4+0t8+1+0t8+4+0t9+2+0t8+0+0t9+1+0t8+0+0t531+0+0t11+0-1t8+0-1t8+0+0t9+0-1t8+0-1t8+0+0t9+0+0t8+0+0t8+0+0t9+0-1t8+0+0t8+0+0t8+0-1t9+0+0t8-1+0t9+0+0t8+0+0t8+0+0t9+0+0t9+0+0t12+0+0t4+0-1t8+0+0t7+0+0t40+0+0t3+0+0t8-1-1t8+0+0t790+0+0t11-5+2t8-3+1t8-4+3t8-1+1t9-6+2t8-4+3t8-2+2t9-7+4t8-2+2t9-3+2t8-5+3t8-1+1t8-7+5t9-6+3t8-4+2t8-8+4t9-11+5t8-3+2t8-9+5t9-13+7t8-6+3t9-8+4t8-8+4t8-13+8t8-7+3t8-14+7t9-14+7t9-17+7t8-27+11t7-11+4t9-18+6t9-15+5t8-15+3t9-14+3t8-23+6t8-7+3t8-11+2t9-16+4t8-11+2t8-9+2t9-9+1t8-9+1t8-9+0t10-8+1t7-7+1t9-7+0t8-6+1t8-3+0t9-8+1t8-4+1t8-3+0t9-2+1t9-3+1t7-3+0t9-4+2t8-6+2t8-5+2t8-8+3t9-8+3t8-8+4t8-7+2t9-3+1t8-2+0t8+0+0t8+0+0t73+0+0t3+0+0t9+0+0t7-1+0t9-2+0t8-2-1t9-4+0t8-5-1t8-2+0t9-8-1t7-1-1t10-2+0t8-1+0t9-1+0t7+0+0t8-1+0t8-2+0t9-3+0t9-8-1t8-7+0t9-5-1t8-10-1t8-3+0t8-10+0t9-7-1t8-9+0t9-8-1t7-2+0t9-6+0t7-1+0t10-1+0t72+0+0t3+0+0t8-2+0t8+0-1t9-1+0t8-1+0t8+0+0t9+0+0t8+0+0t8+0+0t573+0+0t6+3+4t9+3+4t9+5+7t7+5+6t9+4+4t8+4+4t8+3+3t9+5+4t9+5+3t7+7+5t8+4+2t9+11+7t7+5+2t9+11+6t9+16+8t8+8+4t10+7+4t7+7+4t8+4+2t8+2+1t9+5+4t8+3+2t9+1+1t8+3+1t4+0+0t11+0+1t148+0+0t8+0+0t8+0+0t8+2+3t10+1+2t7+1+3t9+0+1t8+1+2t8+0+0t9+0+0t8+0+0t8+0+1t8+0+0,1743681912499,How often do you ask chatbots for advice in topics related to your personal life (e.g. relationships%2C emotions%2C feelings)?,experiment,NULL
1743682200,4dd6656c0a6e1460a321a02637cf74ea,PennController,10,0,experiment,NULL,Scale,response,Choice,Few times,1743681917325,How often do you ask chatbots for advice in topics related to your personal life (e.g. relationships%2C emotions%2C feelings)?,experiment,NULL
1743682200,4dd6656c0a6e1460a321a02637cf74ea,PennController,10,0,experiment,NULL,PennController,13,_Trial_,End,1743681918705,How often do you ask chatbots for advice in topics related to your personal life (e.g. relationships%2C emotions%2C feelings)?,experiment,NULL
1743682200,4dd6656c0a6e1460a321a02637cf74ea,PennController,11,0,experiment,NULL,PennController,14,_Trial_,Start,1743681918706,How often do you see news or articles about artificial intelligence in your daily life (e.g.%2C on social media%2C news websites%2C or TV)?,filler,NULL
1743682200,4dd6656c0a6e1460a321a02637cf74ea,PennController,11,0,experiment,NULL,Timer,RT,Start,Start,1743681918707,How often do you see news or articles about artificial intelligence in your daily life (e.g.%2C on social media%2C news websites%2C or TV)?,filler,NULL
1743682200,4dd6656c0a6e1460a321a02637cf74ea,PennController,11,0,experiment,NULL,Timer,RT,End,End,1743681926056,How often do you see news or articles about artificial intelligence in your daily life (e.g.%2C on social media%2C news websites%2C or TV)?,filler,NULL
1743682200,4dd6656c0a6e1460a321a02637cf74ea,PennController,11,0,experiment,NULL,MouseTracker,mouse,Click,740:458,1743681918710,How often do you see news or articles about artificial intelligence in your daily life (e.g.%2C on social media%2C news websites%2C or TV)?,filler,NULL
1743682200,4dd6656c0a6e1460a321a02637cf74ea,PennController,11,0,experiment,NULL,MouseTracker,mouse,Click,1267:189,1743681922318,How often do you see news or articles about artificial intelligence in your daily life (e.g.%2C on social media%2C news websites%2C or TV)?,filler,NULL
1743682200,4dd6656c0a6e1460a321a02637cf74ea,PennController,11,0,experiment,NULL,MouseTracker,mouse,Click,1267:189,1743681922707,How often do you see news or articles about artificial intelligence in your daily life (e.g.%2C on social media%2C news websites%2C or TV)?,filler,NULL
1743682200,4dd6656c0a6e1460a321a02637cf74ea,PennController,11,0,experiment,NULL,MouseTracker,mouse,Click,882:352,1743681924881,How often do you see news or articles about artificial intelligence in your daily life (e.g.%2C on social media%2C news websites%2C or TV)?,filler,NULL
1743682200,4dd6656c0a6e1460a321a02637cf74ea,PennController,11,0,experiment,NULL,MouseTracker,mouse,Move,x740y458w1512h823t178+0+0t3+0+0t8-1+0t8-1-1t8-1+0t9-1+0t8-1-1t8-1+0t9-3+0t8-2-1t8-3+0t9-2-1t8-4-1t8-4-1t9-7-2t8-8-2t8-8-3t9-10-5t8-10-4t9-7-3t8-15-7t8-20-10t9-13-7t8-8-4t8-14-9t8-30-19t9-18-10t8-15-9t9-16-10t9-16-10t7-16-11t8-7-5t9-17-11t8-10-6t9-10-6t9-9-5t6-4-3t10-8-4t8-8-4t9-4-2t8-12-4t8-9-2t8-8-2t9-6-1t8-4-1t8-7-2t8-9-4t9-5-3t9-5-3t8-4-3t8-5-4t8-6-3t9-6-4t8-3-2t8-5-3t9-2-2t8-2-1t8+0+0t9-1+0t8+0-1t9-1-2t7-1-3t9-2-4t8-1-3t9-1-4t8-1-8t8+0-3t9-1-4t8-1-6t8-1-4t8-1-4t9-1-2t9-4-7t7-2-4t9-1-3t8-1-1t9+0-2t8-1-1t8+0-1t9+0-1t8+0-1t9+0-1t8+0+0t8+0-1t9+0-1t8+0+0t8+0+0t8+0+0t9+0+0t79-1+0t4+0+0t8-1+0t9-1+1t8-2+0t8-1+1t9-2+1t8-1+0t8-2+1t9+0+0t8-1+1t8-1+0t9+0+0t8+0+0t9+0+0t208+0+0t9+1+1t7+1+0t9+2+1t8+3+0t8+4+0t8+6+1t9+6+0t8+6+0t9+12+0t7+13+0t8+8+1t10+23+0t8+19+1t8+9+0t8+39+2t8+12+0t9+29+1t8+21+1t9+21+1t8+27+0t8+24+0t9+20+1t8+19+0t8+18+0t9+18+1t8+20+0t8+16+0t9+16+1t8+14+0t8+16+0t9+18+0t8+16+0t8+11+0t9+11+0t8+12+0t8+15+0t9+15+0t8+12+0t8+13+0t9+14-1t8+7+0t8+25-1t9+15+0t8+14+0t8+13+0t9+14+0t8+18+2t8+15+1t9+12+0t8+13+0t8+13+1t9+16+0t7+9+1t9+25+0t9+14+0t8+15+0t8+7+0t9+21+1t8+13+0t8+9+0t9+10+0t8+10+0t8+12+0t9+11+0t8+6+0t9+6+1t7+4+0t8+8+0t10+10+0t8+5+0t8+4+0t9+6+0t8+5+0t8+4+0t9+2+1t8+6+0t8+3+0t8+2+0t9+4+0t9+1+0t7+2+0t9+1+0t8+1+0t9+0+0t8+1+0t2365-1+0t9-1+0t9+0+0t9-1+0t8-1+0t8-1+1t9-2+0t8-1+0t8-4+0t9-3+1t8-2+0t9-3+0t8-4+0t8-6+0t8-2+0t9-4+0t8-6+0t8-4+0t9-2+0t8-8+1t8-8+0t9-10+0t7-4+0t9-8+0t9-10+0t8-11+0t9-13+1t8-5+0t8-10+0t8-10+0t9-12+0t8-10+1t9-8+0t8-12+1t8-10+1t8-13+3t9-12+3t8-10+2t9-14+3t7-5+2t9-9+3t8-8+3t9-7+4t7-6+4t9-9+7t9-4+3t8-15+11t8-10+7t9-5+3t8-17+10t8-12+8t8-7+4t9-13+7t8-12+7t9-9+5t8-4+2t8-14+7t8-10+5t9-10+4t8-8+3t9-8+4t8-5+1t9-7+3t8-6+3t9-4+3t7-2+1t9-3+2t8-5+3t9-10+6t8-4+3t8-4+2t8-2+0t9-4+2t8-3+1t9-4+1t7+0+0t9-1+1t9+0+0t208+0+0t7+0+0t9+1+0t8+4-1t9+5-1t8+3+0t9+14-2t8+7-1t8+6-1t8+5+0t9+7+0t8+8+0t9+8+0t8+7+1t9+5+0t7+3+0t9+3+0t9+1+0t7+1+0t9+1+0t11+1+0t5+2+0t9+2+1t9+2+0t8+1+0t8+2+0t8+0+0t8+1+0t25+1+0t9+1+0t10+6+0t9+3+0t6+15+0t8+6+0t9+3+0t8+6+0t5+2+0t9+1+0t7+0+0t47+0+0t3+0+0t7+0+0t9+0+0t56+0+0t3+0+0t6+0+1t8+0+0t137+0+0t7-1+0t8-2+1t9-4+0t8-1+0t8-3+1t9-1+0t9-3+1t7-1+0t9-1+0t8+0+0t9+0+0t355+0+1t7+0+0t8+0+0t122+1+0t3+0+0t9+0+0t31+0+0t2-1+2t8-1+2t9-1+2t8-1+3t8-2+2t8-1+4t9-4+5t8-5+7t8-5+7t9-3+4t8-11+12t8-9+9t9-8+8t8-7+6t9-7+4t8-11+6t8-6+3t9-14+7t8-18+8t9-19+9t6-5+3t8-8+5t9-9+5t6-7+6t9-5+4t8-2+3t10-1+1t174+0+0t7+0+0t9+2-1t7+1+0t8+3-1t7+3-2t8+3-2t7+3-2t7+1+0t8+3-2t7+2-2t8+2-2t7+1-1t8+1-1t8+0+0t6+1-1t9+0+0t7+0+0t7+0+0t9+1-1t5+0-1t9+1-2t11+2-1t23+7-5t9+1-2t8+2-1t8+1-2t6+1-1t9+0-1t8+0+0,1743681918707,How often do you see news or articles about artificial intelligence in your daily life (e.g.%2C on social media%2C news websites%2C or TV)?,filler,NULL
1743682200,4dd6656c0a6e1460a321a02637cf74ea,PennController,11,0,experiment,NULL,Scale,response,Choice,Often,1743681924881,How often do you see news or articles about artificial intelligence in your daily life (e.g.%2C on social media%2C news websites%2C or TV)?,filler,NULL
1743682200,4dd6656c0a6e1460a321a02637cf74ea,PennController,11,0,experiment,NULL,PennController,14,_Trial_,End,1743681926057,How often do you see news or articles about artificial intelligence in your daily life (e.g.%2C on social media%2C news websites%2C or TV)?,filler,NULL
1743682200,4dd6656c0a6e1460a321a02637cf74ea,PennController,12,0,experiment,NULL,PennController,15,_Trial_,Start,1743681926058,How often do you chat with chatbots even if you don't need anything from them (e.g. just to chat)?,experiment,NULL
1743682200,4dd6656c0a6e1460a321a02637cf74ea,PennController,12,0,experiment,NULL,Timer,RT,Start,Start,1743681926059,How often do you chat with chatbots even if you don't need anything from them (e.g. just to chat)?,experiment,NULL
1743682200,4dd6656c0a6e1460a321a02637cf74ea,PennController,12,0,experiment,NULL,Timer,RT,End,End,1743681936256,How often do you chat with chatbots even if you don't need anything from them (e.g. just to chat)?,experiment,NULL
1743682200,4dd6656c0a6e1460a321a02637cf74ea,PennController,12,0,experiment,NULL,MouseTracker,mouse,Click,754:456,1743681926062,How often do you chat with chatbots even if you don't need anything from them (e.g. just to chat)?,experiment,NULL
1743682200,4dd6656c0a6e1460a321a02637cf74ea,PennController,12,0,experiment,NULL,MouseTracker,mouse,Click,1280:181,1743681928002,How often do you chat with chatbots even if you don't need anything from them (e.g. just to chat)?,experiment,NULL
1743682200,4dd6656c0a6e1460a321a02637cf74ea,PennController,12,0,experiment,NULL,MouseTracker,mouse,Click,1280:181,1743681928242,How often do you chat with chatbots even if you don't need anything from them (e.g. just to chat)?,experiment,NULL
1743682200,4dd6656c0a6e1460a321a02637cf74ea,PennController,12,0,experiment,NULL,MouseTracker,mouse,Click,465:348,1743681931903,How often do you chat with chatbots even if you don't need anything from them (e.g. just to chat)?,experiment,NULL
1743682200,4dd6656c0a6e1460a321a02637cf74ea,PennController,12,0,experiment,NULL,MouseTracker,mouse,Move,x754y456w1512h823t402+0+0t5+0+0t9-2-1t9-2-1t8-4-1t9-5-3t7-6-5t9-8-5t8-11-10t9-10-8t7-14-12t9-14-11t8-14-10t8-23-14t9-25-14t8-15-9t8-18-10t9-19-14t8-18-13t9-18-15t8-17-16t8-12-10t10-8-8t7-11-10t8-11-10t9-12-10t8-8-7t8-8-7t9-7-6t8-3-3t8-8-6t9-9-6t9-6-4t7-10-8t9-6-5t9-5-6t7-3-2t9-5-7t8-3-4t8-3-3t9-3-2t8-4-2t8-3-2t9-2-2t8-1+0t9-3-2t33+0+0t9+0+0t7+0+0t101+0+0t8+0+0t8+1+0t8+0+0t9+0+1t8+1+0t8+2+1t9+1+1t8+1+0t8+1+1t9+0+1t8+1+1t8+0+1t9+0+2t8+0+1t8-1+3t9-2+4t9-2+7t7-1+2t9-2+4t9-1+4t7+0+0t9+0+0t275+1+0t8+2+0t8+4-1t9+5-1t8+2-1t9+6-1t8+9-1t8+23-2t8+21-1t9+26-1t8+24-1t8+22+0t8+32+0t9+34-1t8+35+0t8+37+0t9+35+0t8+34+1t8+34+0t9+33+1t8+31+0t8+30+1t9+30+0t8+23+0t8+14+0t9+15+0t8+42+0t8+27+0t9+26+0t8+23+1t8+21+0t9+20+0t8+18+1t8+17+1t9+15+0t8+15+0t8+13+0t9+7+0t8+19+0t9+9+0t8+7+0t8+10+0t9+5+0t8+13+0t9+8+0t8+9+0t9+8+0t7+4+0t9+11+0t8+3+0t9+5+0t8+3+0t8+2+0t9+2+0t8+0+0t358+0+0t2094-5+3t6-30+18t9-30+17t8-19+10t8-38+18t8-29+12t9-28+10t8-27+7t8-29+6t9-30+5t8-33+4t8-34+3t9-29+1t8-27+1t9-51+1t7-12+1t9-23+0t8-22+1t9-18+1t8-17+1t7-15+1t10-23+1t8-7+1t9-22+2t8-7+0t8-14+1t8-13+0t9-11+1t8-5+1t8-9+1t9-7+1t8-6+0t8-2+0t9-3+1t8-9+0t8-7+1t9-13+1t8-12+1t8-13+0t9-13+1t8-13+0t8-9+0t9-6+0t8-10+0t8-6+0t9-5+0t8-3+0t8-2+0t9-1+1t8-1+0t9-2+1t8-2+0t8+0+1t8-2+2t9-2+1t8+0+0t8-2+2t9+0+1t8-3+3t8-2+2t8+0+1t9-2+2t8-1+1t9-1+1t8+0+1t9-2+2t8+0+0t8-1+2t8+0+0t9-1+0t9+0+0t7+0+1t9+0+0t8+0+1t8+0+0t9-1+0t8+0+0t9+0+1t8-1+0t8+0+0t8+0+0t9+0+1t9-1+0t7+0+0t9+0+0t339+0+0t3+1+0t8+1+0t8+1+1t9+2+0t29+0+0t4+1+0t8+0+0t8+0+0t9+0+0t9+1+0t7+0+0t9+0+1t8+0+0t9+0+0t67+1+0t7+0+0t9+1+0t8+0+1t8+0+0t26+0+0t8+0+0t8+0+0t30+0+0t3+0+0t9+0+0t8+0+0t8+0+1t527+0+0t7+1+0t8+0+0t8+0+1t9+0+0t8+0+1t8+0+0t9+1+2t8+0+0t8+1+1t9+0+0t8+0+0t8+0+0t35+0+0t7+0+0t8+1+0t9+0+0t1943+0+0t6+0+1t9+1+0t9+2+1t8+1+1t8+0+0t8+0+0t9+0+0t8+0+0t9+0+0t13+0+0t4+0+0t7+0+0t9+1+0t8+0+0t9+0+1t8+0+0t8+1+0t8+0+0t8+0+1t9+1+0t8+0+0t9+0+0t8+1+1t8+1+0t8+0+0t9+1+1t8+0+0t9+1+1t7+1+0t9+1+0t10+1+0t7+0+1t8+2+0t9+0+0t7+2+1t9+2+0t9+1+1t8+1+1t9+1+1t8+1+0t8+1+0t8+1+1t9+1+0t9+2+2t7+1+0t9+1+1t8+2+0t8+2+2t9+2+1t8+1+1t8+1+1t9+2+1t8+2+1t8+2+1t9+2+1t7+1+1t9+2+2t9+1+0t8+2+2t9+2+1t7+2+2t9+2+1t9+3+1t8+2+2t8+3+1t8+1+1t9+4+2t8+2+1t9+1+1t8+1+1t8+2+1t9+1+1t8+1+1t8+1+1t8+0+0t9+0+0t7+0+0t9+0+0t9+0+0t8+0+0t252+0+1t6+0+0t9+1+1t8+3+3t8+3+2t9+4+2t8+2+2t9+6+3t7+5+2t9+8+3t8+3+2t9+12+4t8+6+1t8+13+4t8+5+1t8+9+3t9+9+2t9+10+2t8+6+1t8+7+1t9+6+1t8+6+1t8+4+1t9+4+1t8+1+0t8+4+0t9+3+1t8+2+0t8+1+0t9+2+0t8+1+0t8+3+0t9+1+0t8+0+0t8+1+0t9+0+0t7+0-1t9+2+0t9+2+0t8+0+0t8+0+0t9+1+0t8+1+0t8+2+0t9+3+0t8+1+0t8+2+0t9+1+0t8+4+0t9+3+0t8+3+0t8+2+1t8+4+0t9+7+1t8+3+1t8+2+0t9+2+0t8+2+1t8+2+0t9+1+0t8+0+1t9+1+0t168+0+0t6+0+0t9+0+0t297+0+0t3+0+0t8+0+0t6-1+0,1743681926059,How often do you chat with chatbots even if you don't need anything from them (e.g. just to chat)?,experiment,NULL
1743682200,4dd6656c0a6e1460a321a02637cf74ea,PennController,12,0,experiment,NULL,Scale,response,Choice,Never,1743681931903,How often do you chat with chatbots even if you don't need anything from them (e.g. just to chat)?,experiment,NULL
1743682200,4dd6656c0a6e1460a321a02637cf74ea,PennController,12,0,experiment,NULL,PennController,15,_Trial_,End,1743681936258,How often do you chat with chatbots even if you don't need anything from them (e.g. just to chat)?,experiment,NULL
1743682200,4dd6656c0a6e1460a321a02637cf74ea,PennController,13,0,experiment,NULL,PennController,16,_Trial_,Start,1743681936259,How often do you rely on the answers of chatbots without checking them?,experiment,NULL
1743682200,4dd6656c0a6e1460a321a02637cf74ea,PennController,13,0,experiment,NULL,Timer,RT,Start,Start,1743681936260,How often do you rely on the answers of chatbots without checking them?,experiment,NULL
1743682200,4dd6656c0a6e1460a321a02637cf74ea,PennController,13,0,experiment,NULL,Timer,RT,End,End,1743681942614,How often do you rely on the answers of chatbots without checking them?,experiment,NULL
1743682200,4dd6656c0a6e1460a321a02637cf74ea,PennController,13,0,experiment,NULL,MouseTracker,mouse,Click,751:451,1743681936264,How often do you rely on the answers of chatbots without checking them?,experiment,NULL
1743682200,4dd6656c0a6e1460a321a02637cf74ea,PennController,13,0,experiment,NULL,MouseTracker,mouse,Click,1074:170,1743681938292,How often do you rely on the answers of chatbots without checking them?,experiment,NULL
1743682200,4dd6656c0a6e1460a321a02637cf74ea,PennController,13,0,experiment,NULL,MouseTracker,mouse,Click,1074:170,1743681938533,How often do you rely on the answers of chatbots without checking them?,experiment,NULL
1743682200,4dd6656c0a6e1460a321a02637cf74ea,PennController,13,0,experiment,NULL,MouseTracker,mouse,Click,604:354,1743681940093,How often do you rely on the answers of chatbots without checking them?,experiment,NULL
1743682200,4dd6656c0a6e1460a321a02637cf74ea,PennController,13,0,experiment,NULL,MouseTracker,mouse,Click,751:350,1743681941803,How often do you rely on the answers of chatbots without checking them?,experiment,NULL
1743682200,4dd6656c0a6e1460a321a02637cf74ea,PennController,13,0,experiment,NULL,MouseTracker,mouse,Move,x751y451w1512h823t505-1-3t10-7-12t9+0-2t8-5-8t8-10-13t8-4-5t9-10-11t7-10-11t10-9-12t8-13-14t8-9-9t8-5-6t9-12-12t8-12-11t9-12-10t8-14-13t8-15-14t9-15-15t8-14-14t8-8-9t8-10-10t9-10-10t8-12-11t8-3-3t9-6-5t8-5-5t8-5-4t9-3-4t8-2-2t8-1-1t9-2-2t8-1-1t8-1-1t9-1+0t8+0-1t8-1+0t9-1+0t8-2-1t8-2-1t9-3-1t8-2-1t8-1+0t9-3+0t8-2-1t8-3+0t9+0+0t9+0+0t7+0+0t9-1+0t8+0+0t472+0+0t3+0+0t8+0-1t9+2+0t8+3-1t8+3+0t9+9-1t8+10-1t8+4+0t9+19-2t7+7+0t9+27-2t8+17-1t9+15+0t8+18+0t8+18+0t9+22-1t8+20-1t8+8+0t9+24-1t8+17+0t8+20+0t9+11+0t8+27+0t8+19+0t9+10+0t7+16+0t9+27+0t9+15+0t8+11+0t8+11+0t9+12+0t8+12+0t8+12+0t9+11+0t8+9+0t9+6+0t8+21+0t8+14+0t8+10+0t9+9+0t8+11+0t8+11+0t9+10+0t9+10+0t8+6+0t8+5+0t8+4+0t9+4+0t8+1+0t8+3+0t13+0+0t4+0+0t8+0+0t526+0+0t8-1+0t8+0+0t8+0+0t9+0+0t8+0+1t8-2+1t9-2+1t8-2+1t9-1+1t8-2+3t8-2+1t9-2+2t8-2+2t13-5+5t4-1+1t8-4+3t8-3+1t8-4+2t9-9+4t8-3+1t8-6+2t9-7+3t8-9+3t7-3+1t10-12+4t8-4+2t9-15+5t8-5+1t8-10+3t8-10+3t9-10+3t8-17+5t8-6+2t9-14+5t8-12+3t8-13+3t9-14+5t7-7+2t9-16+4t9-12+3t8-13+3t8-6+2t9-20+4t8-6+2t8-9+2t9-16+5t8-6+1t9-19+5t8-8+2t8-9+2t8-6+1t9-9+2t8-12+3t8-16+5t8-3+1t9-11+4t8-4+1t9-7+2t8-13+5t9-7+3t8-5+2t8-4+2t8-3+2t8-3+1t9-6+3t8-3+2t4-2+1t8-3+2t9-2+3t8-2+1t8-3+3t8-1+2t7-2+1t7+0+1t10-2+2t8-2+1t10-2+3t9-2+2t8-1+2t8+0+2t9+0+0t8+0+1t9-1+1t8+0+0t39+0+0t3+1+0t8+0+0t8+1+0t9+2+0t8+0+0t9+0+0t8+1+0t9+0+0t7+0+0t9+0+0t8+1+0t8+1+0t9+3+0t8+1+0t8+0+1t9+0+0t9+0+0t7+1+0t9+0+0t8+0+0t8+0+0t8+2+0t9+3-1t8+1+0t9+1+0t72+0+0t4+1+0t7+0+0t8+0+0t8+0-1t9+1+0t8+1+0t9+1+0t8+0+0t13+0+0t4+0+0t8+0+0t8+1+0t8+0-1t9+1+0t8+0+0t9+1+0t8+0-1t9+0+0t7+0+0t548+0+0t7+1+1t8+0+0t9+5+4t7+1+1t9+3+2t8+14+10t9+9+5t8+9+6t9+10+5t8+11+6t8+6+3t9+12+6t8+7+4t8+5+5t9+6+4t8+5+5t8+5+5t9+3+2t8+7+8t9+3+3t8+5+6t8+3+3t9+8+8t8+3+2t8+2+1t8+3+2t8+3+1t9+0+1t8+0+0t273+0-1t11+0-1t8+0-2t8+0-1t8+0-2t9+1-2t8+1-4t9+0-3t8+1-3t8+1-2t8+0-3t9+1-3t8+0-2t9+0-3t9+0-2t7+0-2t9+0-1t8+0-4t8+0-3t9+0-3t8+0-2t9+0-3t7+0-2t9+0-4t8+0-2t9+0-3t8+0-4t8+0-2t9+0-4t8+0-2t8+0-1t9+0-2t8+0-4t8+0-3t9+0-1t8+0-3t8+0-2t9+0-1t7+0-1t9+0-2t9+0+0t9+0-1t7+0+0t9+0-1t8+0-1t8+0+0t9+0-1t8+0+0t8+0+0t9-1-1t8+0+0t9+0-1t7+0+0t9+0-1t9-1-1t8+0+0t7-1-1t9-1-1t9+0-1t7+0+0t9+0-1t9-1-1t8+0+0t8+0-1t9+0+0t7+0+0t8-1-1t10+0+0t8+0-1t8+0+0t9+0-1t7+0+0t9+0-1t8+0+0t152+0+0t7+0+0t9-1+0t194+0+0t124+0+1t7+0+1t8-1+6t8+0+6t8+0+6t9+0+5t7+0+2t9-1+8t9+0+7t8+0+5t8+0+3t9+0+6t8+0+4t9+0+5t8-1+4t8+0+2t9+0+2t7-1+4t9+0+2t8+0+1t8+0+0t14+0+0t3+0+0t9+0+1t7+0+0t9-1+1t9+0+0t7+0+0t9+0+2t9+0+0t9+0+3t7-1+3t9+0+1t8-1+4t9+0+2t8+0+1t8-1+0t8+0+1t9+0+0t71+0+0t4+0+1t8+0+0t9-1+1t7+0+0t9+0+1t8+0+1,1743681936260,How often do you rely on the answers of chatbots without checking them?,experiment,NULL
1743682200,4dd6656c0a6e1460a321a02637cf74ea,PennController,13,0,experiment,NULL,Scale,response,Choice,Few times,1743681940094,How often do you rely on the answers of chatbots without checking them?,experiment,NULL
1743682200,4dd6656c0a6e1460a321a02637cf74ea,PennController,13,0,experiment,NULL,Scale,response,Choice,Sometimes,1743681941803,How often do you rely on the answers of chatbots without checking them?,experiment,NULL
1743682200,4dd6656c0a6e1460a321a02637cf74ea,PennController,13,0,experiment,NULL,PennController,16,_Trial_,End,1743681942615,How often do you rely on the answers of chatbots without checking them?,experiment,NULL
1743682200,4dd6656c0a6e1460a321a02637cf74ea,PennController,14,0,experiment,NULL,PennController,17,_Trial_,Start,1743681942617,How often do you receive suspicious emails or messages that might be phishing attempts?,filler,NULL
1743682200,4dd6656c0a6e1460a321a02637cf74ea,PennController,14,0,experiment,NULL,Timer,RT,Start,Start,1743681942617,How often do you receive suspicious emails or messages that might be phishing attempts?,filler,NULL
1743682200,4dd6656c0a6e1460a321a02637cf74ea,PennController,14,0,experiment,NULL,Timer,RT,End,End,1743681951283,How often do you receive suspicious emails or messages that might be phishing attempts?,filler,NULL
1743682200,4dd6656c0a6e1460a321a02637cf74ea,PennController,14,0,experiment,NULL,MouseTracker,mouse,Click,742:453,1743681942621,How often do you receive suspicious emails or messages that might be phishing attempts?,filler,NULL
1743682200,4dd6656c0a6e1460a321a02637cf74ea,PennController,14,0,experiment,NULL,MouseTracker,mouse,Click,1105:191,1743681944173,How often do you receive suspicious emails or messages that might be phishing attempts?,filler,NULL
1743682200,4dd6656c0a6e1460a321a02637cf74ea,PennController,14,0,experiment,NULL,MouseTracker,mouse,Click,1105:180,1743681948073,How often do you receive suspicious emails or messages that might be phishing attempts?,filler,NULL
1743682200,4dd6656c0a6e1460a321a02637cf74ea,PennController,14,0,experiment,NULL,MouseTracker,mouse,Click,468:355,1743681949919,How often do you receive suspicious emails or messages that might be phishing attempts?,filler,NULL
1743682200,4dd6656c0a6e1460a321a02637cf74ea,PennController,14,0,experiment,NULL,MouseTracker,mouse,Move,x742y453w1512h823t239+0-1t2+0+0t9-1-1t8-5-5t9-5-5t8-2-2t8-8-8t8-8-7t8-4-4t8-10-6t9-18-11t9-14-8t8-17-10t8-16-10t8-8-4t8-16-9t8-16-10t9-15-10t9-16-11t8-19-12t9-6-3t8-16-8t8-6-4t8-18-11t9-12-7t7-5-3t9-10-6t9-18-11t8-14-9t9-13-9t8-8-5t9-3-3t8-7-4t8-8-7t8-3-3t9-6-6t8-1-1t8-2-3t8-1-2t9-1-5t8+0-2t9-1-5t7+0-1t9+0-2t9+0-2t8+0+0t8+0-2t9+0-1t8+0-1t8+0-2t9+0-1t8+0-1t9+0-1t7+1-1t9+0-1t9+1-2t8+1-1t8+1-1t8+2-1t9+2-1t8+2-1t8+2-1t9+1-1t8+1+0t8+0-1t9+1+0t8+1+0t8+0-1t9+1+0t8+0+0t8+0+0t9+0-1t8+0+0t155+0+0t3+0+0t9+1+0t8+1+0t9+0+0t7+4+1t9+5+1t8+12+1t9+19+2t7+8+0t9+31+1t8+23+1t9+33+1t8+31+1t8+24+1t9+25+2t7+14+1t9+46+2t9+33+1t8+14+0t9+37+2t8+23+0t8+25+1t8+26+0t9+20+0t7+9+0t10+31+1t8+9+0t7+20-1t10+31+0t8+14+0t8+15+0t8+14+0t9+7-1t9+21+0t8+9-1t8+10+0t8+15+0t9+9+0t8+9+0t8+8+0t9+5+0t8+2+0t8+6+0t8+2+0t9+2+0t8+0+0t2324+0-1t10+0-4t8+0+0t9+0-1t8+0+0t8+0-1t8+0+0t8+0-1t9+0+0t8+0+0t8+0+0t9+0+0t8+0-1t9+0+0t8+0+0t13+0+0t4+0+0t8+0-1t8+0+0t9+0+0t8+0-1t8+0+0t9+0+0t8+0+0t1698+0+0t6-1+0t9-1+0t8-3+0t8-1+1t8-1+0t9-1+0t8-2+1t9-3+0t8-3+1t8-8+3t9-9+2t8-11+3t8-11+3t8-20+5t9-15+4t9-14+3t8-12+4t9-15+4t7-18+5t9-23+5t7-25+5t9-19+4t8-18+4t9-18+4t8-18+3t8-8+2t9-22+5t7-6+1t10-10+2t8-23+5t8-17+4t8-12+3t9-14+4t7-7+2t9-16+4t9-13+4t8-18+5t8-12+3t9-11+3t8-11+2t8-6+1t9-13+3t8-3+1t8-11+2t9-11+3t8-9+2t8-7+2t9-5+1t8-4+1t8-3+1t8-2+1t9-2+1t9-4+1t8-4+2t8-8+4t9-3+1t8-9+4t8-3+1t8-8+4t9-2+1t7-1+1t9-4+2t9-3+2t8-5+3t8-5+4t9-6+3t8-5+4t8-7+4t9-5+3t8-2+2t9-3+1t8-1+0t8+0+1t8-1+0t9+0+0t8+0+0t9+0+0t7+0+0t9-1+0t8-1+0t9+0+0t30+1+0t4+0+0t8+0+0t8+3-1t8+3-1t8+4-1t9+4-1t8+6-2t8+6-1t9+5-1t8+5-2t9+10-1t8+8-1t8+7-1t9+11+0t7+4-1t9+7+0t8+7+0t9+3+0t8+5+0t9+3+0t8+1-1t8+5+0t9+1+0t8+1+0t10+0+0t7+1+0t42+0+0t7+1+0t9+2+0t8+1+0t9+1+0t8+0+0t8+0+0t9+1+0t8+1+0t9+0+0t7+2+0t9+2+0t8+1+0t8+2+0t10+1+1t5+0+0t7+0+0t7+1+0t8+0+0t9+0+0t8+0+0t8+1+0t9+0+0t7+1+0t8+0+0t9+1+1t9+1+0t13-1+0t4-1+1t8+0+0t8-3+1t8-5+2t8-5+1t9-6+1t8-7+1t9-7+1t8-6+0t9-6+1t8-7+0t8-9+0t9-9+0t8-9+0t9-6+0t7-7+0t9-7+0t8-6+0t8-6+0t9-4+0t8-4+0t8-4-1t8-3+0t9-1+0t9-1+0t4+0+0t77+0+0t7+0+0t6-1+0t10+0+0t7+0+0t345+0+0t6+0+0t9+1+0t8+2+1t9+3+1t9+9+4t7+7+3t9+7+2t8+12+4t8+12+4t9+15+7t8+8+4t8+23+10t9+16+7t8+18+7t9+17+7t3+8+3t8+9+4t8+11+5t9+12+5t8+12+4t7+13+4t8+16+5t8+8+3t9+15+4t6+8+2t10+6+2t8+5+1t10+4+1t8+1+0t8+0+0t10+0+0t7+1+0t8+1+0t9+1+0t7+1+0t9+0+0t9+1+0t7+1+0t8+1+0,1743681942617,How often do you receive suspicious emails or messages that might be phishing attempts?,filler,NULL
1743682200,4dd6656c0a6e1460a321a02637cf74ea,PennController,14,0,experiment,NULL,Scale,response,Choice,Never,1743681949919,How often do you receive suspicious emails or messages that might be phishing attempts?,filler,NULL
1743682200,4dd6656c0a6e1460a321a02637cf74ea,PennController,14,0,experiment,NULL,PennController,17,_Trial_,End,1743681951285,How often do you receive suspicious emails or messages that might be phishing attempts?,filler,NULL
1743682200,4dd6656c0a6e1460a321a02637cf74ea,PennController,15,0,experiment,NULL,PennController,18,_Trial_,Start,1743681951287,How often do you send and receive messages or emails?,control,NULL
1743682200,4dd6656c0a6e1460a321a02637cf74ea,PennController,15,0,experiment,NULL,Timer,RT,Start,Start,1743681951287,How often do you send and receive messages or emails?,control,NULL
1743682200,4dd6656c0a6e1460a321a02637cf74ea,PennController,15,0,experiment,NULL,Timer,RT,End,End,1743681957915,How often do you send and receive messages or emails?,control,NULL
1743682200,4dd6656c0a6e1460a321a02637cf74ea,PennController,15,0,experiment,NULL,MouseTracker,mouse,Click,753:459,1743681951291,How often do you send and receive messages or emails?,control,NULL
1743682200,4dd6656c0a6e1460a321a02637cf74ea,PennController,15,0,experiment,NULL,MouseTracker,mouse,Click,1116:174,1743681952827,How often do you send and receive messages or emails?,control,NULL
1743682200,4dd6656c0a6e1460a321a02637cf74ea,PennController,15,0,experiment,NULL,MouseTracker,mouse,Click,1116:174,1743681953083,How often do you send and receive messages or emails?,control,NULL
1743682200,4dd6656c0a6e1460a321a02637cf74ea,PennController,15,0,experiment,NULL,MouseTracker,mouse,Click,1070:179,1743681954807,How often do you send and receive messages or emails?,control,NULL
1743682200,4dd6656c0a6e1460a321a02637cf74ea,PennController,15,0,experiment,NULL,MouseTracker,mouse,Click,1022:185,1743681955633,How often do you send and receive messages or emails?,control,NULL
1743682200,4dd6656c0a6e1460a321a02637cf74ea,PennController,15,0,experiment,NULL,MouseTracker,mouse,Click,747:351,1743681956820,How often do you send and receive messages or emails?,control,NULL
1743682200,4dd6656c0a6e1460a321a02637cf74ea,PennController,15,0,experiment,NULL,MouseTracker,mouse,Move,x753y459w1512h823t223+0+0t7-1+0t9-1-1t7-5-4t8-4-4t9-5-6t8-8-10t8-7-9t9-4-6t8-6-8t8-2-4t9-9-15t8-6-10t9-5-9t8-4-9t8-5-9t8-5-9t9-3-6t8-7-17t9-2-5t8-7-17t8-6-12t9-3-8t8-5-12t9-5-11t7-2-4t9-3-6t8-2-5t9-1-2t8-3-6t8-1-2t9-2-4t8-2-4t8-2-4t9-2-3t8-2-2t8-4-4t9-2-1t8-1-1t8-1-1t9-2-1t8-1+0t8-1-1t9-1+0t7-1-1t9-2-1t9-2-1t8+0+0t8-3-2t9-4-2t8-3-2t8-2-2t9-3-1t8-6-3t8-3-1t9-4-1t8-3-1t8-3+0t9-2-1t8-1+0t8-2-1t9+0+0t8-1-1t8-2+0t8+0-1t9-2-1t8-2-2t8-2-1t9-3-2t8-2-1t8-3-2t9-1-1t8-1+0t9-1-1t8+0+0t226+1+0t7+2+0t9+2+0t8+11-1t9+12+0t7+16+0t9+10-1t8+26-1t8+22+0t8+10-1t8+27+0t9+39+0t9+24+0t8+27+0t9+14+0t8+26+0t7+26+1t10+38+0t8+23+1t8+23+0t8+18+1t9+14+0t8+19+0t8+19+0t9+8+0t8+24+1t8+14+0t9+11+0t8+13+0t8+12+0t9+11+0t8+10+0t9+4+0t8+8+0t8+6+0t9+4+0t8+2+0t8+0+0t9+1+0t26+0+0t7+0+0t9+0+0t526+0+0t7+0+0t8-1+0t8+0+0t24+0+0t10-3+1t8-3+2t8-1+1t9-3+1t8-3+2t8-4+2t9-4+3t8-5+2t8-5+2t9-5+2t8-5+1t8-7+2t8-6+1t9-4+0t8-3+0t9-7+1t8-3+0t8-5+1t8-11+1t9-7+0t8-4+1t9-7+0t8-9+1t8-10+1t9-3+0t8-9+0t8-11+1t9-8+0t8-12+0t8-5+0t9-4+0t9-27-1t8-12-1t8-6+0t8-12-1t8-13-1t9-22-1t8-5-1t8-9+0t9-11+0t8-10+0t8-14-1t8-13-1t9-9-1t8-5+0t8-16-1t9-12-1t8-11-1t8-7+0t9-19-1t8-12+0t9-13+0t8-15-1t8-12-1t8-6+0t9-15-1t8-9-1t8-8-1t9-7-1t9-4+0t8-3+0t9-4-1t7-5+0t9-4+0t8-3+0t8-1+0t9-4+0t8-4+0t9-5+0t8-5+0t9-7-1t7-1+0t9-4+0t8-2+0t8-3+0t9-3+0t8-1+0t8-1+0t9+0+0t7-1+0t9-1+0t9-1+0t8+0+0t8+0+0t9-1+0t8+0+0t8-2+0t9-3+0t8-2+0t8-4+0t8-4+0t9-3+1t8-2+0t8-3+0t9-2+0t8-2+0t9+0+0t274+0+0t8+0+0t10+4+0t8+3+0t8+7-1t8+7+0t8+4-1t9+19-1t9+8+0t7+20+0t9+11+0t8+50-1t8+31+0t9+33+0t7+14+0t9+23+0t8+22+0t8+23+0t8+28+0t9+29+0t8+27+0t9+24+0t8+23+0t9+31+0t8+19+0t9+16+0t9+14+0t7+12+0t9+12+0t8+9+0t8+7+0t9+5+0t8+3+0t9+9+0t7+2+0t9+2+0t9+4+0t8+1+0t8+0+0t411+0+0t6+0+0t9-1+0t151+0+0t7-2+0t8+0+0t8-2+1t9-2+1t8-2+0t9-4+1t8-1+0t8-3+1t8-4+0t9-4+1t8-3+0t8-3+1t9-3+0t8-1+0t8-3+0t9-2+0t8-1+0t8-1+0t9-1+0t8-2+0t8-2+0t9-1+0t192-1+0t17-1+0t7-2+1t9-2+0t8-7+2t8-7+2t9-3+1t9-13+3t7-15+6t9-14+5t7-8+3t9-17+8t8-19+8t9-19+9t8-6+4t9-13+7t8-9+6t8-8+4t9-8+6t8-9+5t8-10+8t9-11+8t8-8+6t8-8+6t9-7+5t8-9+7t8-11+7t9-10+7t8-9+6t7-11+6t9-5+3t9-28+16t8-6+3t8-17+7t10-11+4t7-6+1t8-11+3t9-15+4t8-6+0t9-3+1t8-3+0t8-1+0t26+0+0t8+1+0t8+2-1t8+3+0t9+6-2t8+6-1t9+6-2t8+9-2t8+10-2t8+15-4t9+2+0t8+5-1t8+5-1t8+1-1t9+3+0t8+3-1t9+0+0t8+2+0t8+1+0t8+3+0t9+1+0t8+4+0t9+2+0t8+2+0t8+3+0t131+0+0t10+0+0t9+1-1t9+1+0t8+2+0t8+0-1t9+0+0t55+1+0t3+1+0t8+1+0t9+2+0t8+1-1t8+1+0t9+1+0t7+1+0t9+1+0t9+1+0t8+0+0t8+1+0t9+0-1t7+1+0t60+0+0t7+0+0t9+0+0t42+0+0t8+0+0t8+0+0t154+0+0t4+0+0t8+0+0t9+0+0t68-1+0t7+0+0t9+0+0t8-3+1t8-2+1t8-2+1t10-7+2t7-3+2t8-4+2t9-2+1t8-9+2t9-5+1t8-4+1t8-5+1t8-3+0t9-7+0t8-9+1t9-10+0t8-11+0t8-11-1t9-12+0t8-8-1t8-7+0t9-7+0t8-5+0t8-5-1t9-4+0t7-3+0t9-1+0t9-1+0t7+0-1t9-1+0t26+0+0t8+0+0t8-1+0t8+0-1t9+0+0t8+0+0t8-2-2t9+0+0t7+0+0t9+0+0t9+0-1t8+0+0t9+0+0t8+1+0t7+3+0t9+6+0t8+3+0t9+6+0t7+6+1t10+8+2t8+7+3t9+9+4t8+8+4t8+10+7t8+9+6t9+5+4t8+5+4t8+6+7t9+4+5t8+2+2t8+4+6t9+1+1t8+2+4t8+1+2t9+1+1t8+0+2t8+0+0t9+0+0t9+0+0t8+1+1t8+0+0t8+3+2t8+0+1t9+2+1t8+3+1t8+3+2t8+2+1t9+1+1t9+2+3t8+1+1t8+3+4t9+3+3t7+2+2t9+2+3t8+3+3t9+3+3t9+2+3t9+1+1t9+1+0t28+0+0t4+0+0t9+0+0t8+0+0,1743681951287,How often do you send and receive messages or emails?,control,NULL
1743682200,4dd6656c0a6e1460a321a02637cf74ea,PennController,15,0,experiment,NULL,Scale,response,Choice,Sometimes,1743681956820,How often do you send and receive messages or emails?,control,NULL
1743682200,4dd6656c0a6e1460a321a02637cf74ea,PennController,15,0,experiment,NULL,PennController,18,_Trial_,End,1743681957916,How often do you send and receive messages or emails?,control,NULL
1743682200,4dd6656c0a6e1460a321a02637cf74ea,PennController,16,0,experiment,NULL,PennController,19,_Trial_,Start,1743681957917,When you have to create a password for a new account%2C how often do you use strong passwords (different from any other password you used in the past%2C with many special characters and really long)?,experiment,NULL
1743682200,4dd6656c0a6e1460a321a02637cf74ea,PennController,16,0,experiment,NULL,Timer,RT,Start,Start,1743681957918,When you have to create a password for a new account%2C how often do you use strong passwords (different from any other password you used in the past%2C with many special characters and really long)?,experiment,NULL
1743682200,4dd6656c0a6e1460a321a02637cf74ea,PennController,16,0,experiment,NULL,Timer,RT,End,End,1743681985065,When you have to create a password for a new account%2C how often do you use strong passwords (different from any other password you used in the past%2C with many special characters and really long)?,experiment,NULL
1743682200,4dd6656c0a6e1460a321a02637cf74ea,PennController,16,0,experiment,NULL,MouseTracker,mouse,Click,737:460,1743681957921,When you have to create a password for a new account%2C how often do you use strong passwords (different from any other password you used in the past%2C with many special characters and really long)?,experiment,NULL
1743682200,4dd6656c0a6e1460a321a02637cf74ea,PennController,16,0,experiment,NULL,MouseTracker,mouse,Click,670:172,1743681961438,When you have to create a password for a new account%2C how often do you use strong passwords (different from any other password you used in the past%2C with many special characters and really long)?,experiment,NULL
1743682200,4dd6656c0a6e1460a321a02637cf74ea,PennController,16,0,experiment,NULL,MouseTracker,mouse,Click,561:181,1743681976609,When you have to create a password for a new account%2C how often do you use strong passwords (different from any other password you used in the past%2C with many special characters and really long)?,experiment,NULL
1743682200,4dd6656c0a6e1460a321a02637cf74ea,PennController,16,0,experiment,NULL,MouseTracker,mouse,Click,223:170,1743681977774,When you have to create a password for a new account%2C how often do you use strong passwords (different from any other password you used in the past%2C with many special characters and really long)?,experiment,NULL
1743682200,4dd6656c0a6e1460a321a02637cf74ea,PennController,16,0,experiment,NULL,MouseTracker,mouse,Click,1267:180,1743681981271,When you have to create a password for a new account%2C how often do you use strong passwords (different from any other password you used in the past%2C with many special characters and really long)?,experiment,NULL
1743682200,4dd6656c0a6e1460a321a02637cf74ea,PennController,16,0,experiment,NULL,MouseTracker,mouse,Click,772:236,1743681981722,When you have to create a password for a new account%2C how often do you use strong passwords (different from any other password you used in the past%2C with many special characters and really long)?,experiment,NULL
1743682200,4dd6656c0a6e1460a321a02637cf74ea,PennController,16,0,experiment,NULL,MouseTracker,mouse,Click,744:351,1743681982606,When you have to create a password for a new account%2C how often do you use strong passwords (different from any other password you used in the past%2C with many special characters and really long)?,experiment,NULL
1743682200,4dd6656c0a6e1460a321a02637cf74ea,PennController,16,0,experiment,NULL,MouseTracker,mouse,Click,762:334,1743681983386,When you have to create a password for a new account%2C how often do you use strong passwords (different from any other password you used in the past%2C with many special characters and really long)?,experiment,NULL
1743682200,4dd6656c0a6e1460a321a02637cf74ea,PennController,16,0,experiment,NULL,MouseTracker,mouse,Click,762:334,1743681983387,When you have to create a password for a new account%2C how often do you use strong passwords (different from any other password you used in the past%2C with many special characters and really long)?,experiment,NULL
1743682200,4dd6656c0a6e1460a321a02637cf74ea,PennController,16,0,experiment,NULL,MouseTracker,mouse,Move,x737y460w1512h823t173+0+0t8-2+0t9-1-1t8-2-1t8-3-2t9-4-4t9-5-5t7-3-2t10-10-9t8-6-5t8-9-8t8-4-4t8-16-16t9-12-10t7-5-6t9-10-10t9-13-11t8-14-12t8-18-16t8-17-12t9-23-14t8-18-11t9-19-11t8-21-10t8-18-9t9-17-9t9-17-8t8-8-4t8-31-14t8-22-8t9-18-4t8-9-3t8-26-5t9-19-3t8-20-3t9-8-1t7-13-1t9-12-2t9-11-1t8-12-1t8-7+0t8-1+0t9-4-1t8-2+0t8-2+0t13-1+0t4+0+0t8-1+0t9-2+0t8-3+0t8-3+0t9-2-1t8-2+0t8-2+0t9-2+0t8-2+0t9+0+0t8+0+0t8+0-1t8-1-1t9-1-1t8-1-1t9-1-1t8-1+0t8-2-3t8-1+0t9-1-2t8-2-1t8-2-1t9-2-2t8-2-1t8-1+0t9+0-1t8+0+0t8+0-1t9-1+0t8+0-2t8-1-1t9+0-1t8-2-1t8-1-2t9-2-1t8-1-1t8-1+0t9+0+0t8+0+0t8-2+0t9-1+0t8+0+0t8-1+0t9-1+0t8-1+0t8-1+0t9+0+0t8-1+0t8+0+0t38-1+0t4+0+0t8+0+0t9-1+0t8-2+0t8+0+0t9-1+0t8-1+0t8-1+0t9+0+0t8+0+0t8+0+0t8+0+0t10-1+0t7+0+0t8-1+0t9+0+0t8-1+0t131+0+0t11+1+0t8+0+0t9+2+0t6+1+0t0+1+0t2+3+0t17+3+0t9+2+0t7+7+0t5+3-1t10+6+0t5+6+0t9+11+0t8+12-1t9+12+0t8+14+0t8+16+0t9+18+0t8+19+0t8+16+0t9+18+0t8+16+0t8+18+0t8+10+0t8+17+0t9+20+1t9+13+0t8+12+0t8+15+0t9+15+0t8+11+0t8+10+0t9+10+0t8+10+0t8+11+0t9+8+0t8+6+0t8+6+0t9+6+0t8+6+0t8+6+0t9+3+0t9+3+0t7+5+0t9+4+0t8+4+0t8+2+0t9+1+0t8+1+0t8+2+0t9+1+0t8+1+0t9+1+0t8+0+0t72+0+0t4+0+0t8+1+0t7+0+0t9+0+0t8+1+0t9+1+0t8+0+0t7+0+0t10+3-1t8+1+0t8+1+0t9+1+0t8+1+0t8+0+0t9+0+0t8+1+0t9+0+0t8+0+0t213+0+0t12+1+0t8+1+0t8+8+0t9+3+1t9+4+0t7+4+0t9+4+0t7+2+0t9+7+0t9+1+0t9+5+1t8+1+0t9+5+0t7+3+0t9+2+0t7+1+0t8+2+0t9+1+0t8+1+0t9+0+0t25+0+0t9+1+0t7+0+0t569+0+0t7+2-1t17+3+0t7+2-1t9+1+0t8+1+0t8+2+0t8+0+0t8+1+0t9+1+0t9+1+0t9+0+0t67+0+0t7+0+0t8+0+0t9+1+0t8+0+0t132+0+0t9+0+0t9+1+0t9+1-1t8+0+0t8+0-1t8+0+0t251+0+0t8+1+0t9+0+0t8+4-3t8+3-3t8+3-3t9+1-1t8+1-2t8+1-1t9+1-1t8+0+0t24+0+0t9+0+0t9+1+0t14411-1+0t10+0+0t8-10+6t8-11+8t8-5+3t9-17+9t8-12+5t9-6+3t8-19+7t8-6+2t9-17+6t8-5+1t8-8+1t9-8+1t8-10+2t8-2+0t9-4+1t8-2+0t8-1+0t13+0+0t5+0+0t7-1+0t8+0+0t9+0+0t8-1+0t8-1-1t9+0+0t8+0-1t8+0+0t9+0+0t8-1+0t8+0+0t56+0+0t4+0+0t7+0-1t9+1+0t9+1-1t7+1-1t9+0-1t8+1-2t8+2-2t8+2-2t9+2-3t8+2-3t8+2-3t9+1-2t8+2-2t8+1-2t9+2-2t8+0-1t8+0+0t9+0+0t115+0+0t1+1-1t9+1-1t8+1+0t8+1-2t9+0-1t8+1+0t9+0+0t7+0-1t199+0+0t3+0+0t7-1+0t8-1+0t9-3+0t8-1+0t9-4+0t8-2+0t8-3+0t9-5+0t8-2+0t8-3+0t9-4+0t8-5+0t8-7+0t9-3+0t8-12+1t8-4+0t9-9+0t8-9+0t8-6+1t9-7+0t8-9+0t8-8+0t8-5+0t9-9+0t8-6+0t9-8+1t8-9+1t8-10+0t9-14+0t8-5+0t8-10+1t9-17+0t8-6+0t8-13+1t9-10+0t8-10+1t8-9+0t8-9+1t9-13+0t8-7+0t9-3+0t8-10+0t8-12+0t9-15+1t8-13+0t8-9+0t9-14+1t8-5+0t9-9+1t7-2+0t9-5+0t8-6+0t8-2+1t9-5+0t8-2+0t9-1+0t8-2+0t8-1+1t9-1+0t8+0+0t84+0+0t8+0+0t8+1+0t8+2-1t9+2-1t8+5-2t8+5-2t9+5-2t8+6-2t8+2-1t9+5-2t8+6-2t8+3-1t9+2+0t8+3-1t8+2-1t9+2-1t8+2-1t8+1+0t9+0+0t8+1+0t8+0+0t8+0+0t373+0+0t3+1+0t8+2+0t8+7+1t8+3+1t9+12+1t8+14+1t8+15+1t9+9+0t8+5+0t8+11+1t8+12+0t9+15+1t8+22+2t8+5+1t9+12+2t9+10+2t8+10+2t8+8+2t9+8+3t7+2+0t9+5+2t8+1+1t9+2+1t8+1+1t148+0+0t10+0+0t9+1+0t8+2+0t9+1-1t8+1+0t9+4-2t7+4-2t9+7-3t8+8-3t8+12-5t9+8-4t8+5-2t9+7-3t9+7-3t7+2-1t9+4-2t8+4-1t8+1-1t8+1+0t9+1+0t8+1-1t9+4+0t8+2+0t8+5-1t8+3+0t9+3+0t8+1+0t8+4+0t9+1+0t8+1+0t8+1-1t9+2+0t8+1+0t8+1+0t9+2+0t8+0+0t8+1+0t9+0+0t13+1+0t4+0+0t8+1+0t8+1+0t9+1+0t8+3+1t8+1+1t9+1+1t8+1+1t9+0+1t8+0+1t8+0+0t8+1+1t8+1+2t9+2+1t8+2+1t8+5+2t9+1+1t8+5+3t9+1+0t8+2+1t8+0+0t310+1+0t7+1+0t8+4+0t8+5-1t8+4+0t9+16+0t7+7-1t10+23-2t8+10+0t7+20-2t9+15-1t9+20-2t17+25-2t8+13-1t8+8-1t8+4+0t9+8+0t8+13+0t8+5+0t9+13-1t8+8+0t8+9+0t9+10-1t9+13+0t8+13+0t8+11+0t8+11+0t8+6+0t9+18+0t8+12+0t9+7+0t9+6+0t7+6+0t9+6+0t8+4+0t8+3+0t9+1+0t8+1+0t193+0+1t8+0+1t7+0+1t9+0+1t8+0+1t8+1+2t8+0+1t9+0+1t8+0+1t8+0+0t9+0+0t8+0+1t256+0+0t11+1+0t8+0+1t10+0+1t7+0+0t9+0+1t8+0+0t9+0+0t7+0+0t9+1+1t8+1+0t9+0+0t8+1+1t8+1+0t8+1+0t9+2+0t8+2+0t10+2+1t6+3+0t10+3+0t7+3+0t9+7+0t4+3+0t8+3+0t8+9+0t8+2+0t9+5+0t8+5+0t8+5+0t9+2+0t8+6+0t9+3+0t8+4+1t7+2+0t10+6+0t8+2+0t8+6+0t10+2+0t7+8+0t8+3+0t9+8+0t8+3+0t8+9+0t9+6+0t8+6+0t9+5+0t8+5+0t8+8+0t7+4+0t9+6+0t8+5+0t8+4+0t10+9+0t8+5+0t9+5+0t7+2+0t9+5+0t8+4+0t9+4+0t8+6+0t9+5+0t8+4+0t8+2+0t9+5+0t8+5+0t8+3+0t8+3+0t10+2+0t6+2+0t9+3+0t9+1+0t9+4+0t7+1+0t9+1+0t8+2+0t8+2+0t9+1+0t8+1+0t8+2+0t9+1+0t8+3+0t8+2+0t9+1+0t8+1+0t7+1+0t10+4+0t9+3+0t7+3+0t9+2+0t8+3+0t8+3+0t9+2+0t8+2+0t9+0+0t8+1+0t8+1+0t18+1+0t6+0+0t9+1+0t10+1+0t8+0+0t41+0+0t8+0+0t8+1+0t31+0+0t4+0+0t8+1+0t8+1+0t8+2+0t8+4+0t11+7+0t8+5+0t9+4+0t9+5-1t8+6+0t8+6+0t10+3+0t8+2+0t8+1+0t8+2+0t9+0+0t34+0+0t8+0+0t8+0+0t251+0+1t8-1+0t8-6+3t9-10+5t9-16+8t7-24+9t9-24+7t8-25+6t8-27+6t9-27+5t9-31+3t7-29+3t9-22+1t8-24+1t8-25+0t9-27+1t8-27+1t8-17+0t9-22+0t8-27+0t8-25-1t9-18+0t9-17-1t7-12+0t9-8-1t8-3+0t8-1+0t135+0+0t8+0-1t4+0+0t46+0+0t7-2+0t9-4+1t8-7+3t8-6+2t8-6+4t9-7+4t8-6+4t9-7+7t8-7+7t8-6+7t9-6+6t9-8+8t7-5+6t9-4+5t7-3+4t9-3+4t9-1+4t8-1+2t8+0+2t10-1+2t7+0+2t9+0+0t41+0+0t8+1+1t9+4+1t8+5+2t10+7+2t7+9+3t9+11+2t8+10+1t8+7+0t8+5+1t9+4+0t9+3+0t7+2+0t8+3+0t9+1+0t8+0+0t8+1+0t9+0+0t8+0+1t8+1+0t8+0+1t9+0+0t8+0+1t8+0+2t9+0+2t8+0+1t8-1+2t8+0+2t9+0+1t9-1+1t8+0+0t8-1+1t8-1+0t9-3+1t7-1+0t9-3+1t9+0+0t7-1+0t9+0+0t226+0+1t7+0+0t9+0+0t193+0+1t6+0+2t9+0+2t9+0+3t8+0+2t8+1+7t8+0+4t9+0+4t8+0+2t8+1+4t9+0+3t9+0+3t7+0+3t9+0+2t8+0+3t8+0+1t9+0+4t8+0+5t9-1+3t8+0+2t9+0+2t7+0+2t10+0+1t7+0+0t8+0+1t56+0+0t3+0-1t8+1+0t9+1-2t8+5-7t8+1-2t9+2-5t8+1-6t8+2-5t8+2-12t9+1-7t8+1-2t8+0-5t9+0-8t8+0-2t9+0-2t7+0-3t9+0-3t8+0-1t9+0-2t8+0-1t8+0-2t9+0-2t25+0-2t8+0-1t285-1+1t7-2+2t10-2+3t7-1+3t7-1+1t10-1+3t10-1+1t9+0+0t8+0+0t157+0+1t11+0+1t8+0+2t9+0+1t7+0+2t10+0+4t8-1+3t8+0+4t9-1+5t7-1+7t9-1+6t8+0+3t9+0+8t9+0+5t7+1+6t9+0+6t8+0+4t8+0+1t9+0+3t8+0+2t8+0+0t9+0+1t8+0+0t67+0+0t8-1+0t8+0+0t8-1-1t10-3-4t7-1-3t9-4-5t8-4-5t9-6-4t8-8-5t8-11-4t9-6-2t8-24-7t9-14-3t7-13-2t8-7-2t9-7-1t9-31-5t7-15-3t10-11-2t8-11-1t8-9-2t8-7-1t8-7-1t9-2-1t8-1+0t8+0+0t9+0+0t31+0+0t2+0-1t9+0+0t8+0-1t9+2-2t6+1+0t10+3-2t8+2-2t8+4-1t5+3-1t10+5-2t6+7-1t8+4-1t9+9+0t7+2+0t9+6+1t9+6+3t6+2+1t9+7+5t9+8+5t8+5+3t9+15+12t8+10+9t9+3+3t8+7+8t8+7+9t8+1+3t9+3+5t8+2+5t8+4+5t9+3+6t8+4+3t8+4+3t8+5+3t10+7+3t7+2+1t8+3+1t9+3+1t8+2+1t9+3+0t8+1+1t8+1+1t9+1+0t7+0+0t9+1+0t8+0+0t27+0+0t6+0+0t9+1+0t8+1+0t9+2+0t8+2+0t9+2+0t7+3+0t8+0+0t9+1+0t9+0+0t25+0+0t8+0+0t8+1+1t9+2+1t8+1+2t9+2+2t8+0+0t8+0+0,1743681957918,When you have to create a password for a new account%2C how often do you use strong passwords (different from any other password you used in the past%2C with many special characters and really long)?,experiment,NULL
1743682200,4dd6656c0a6e1460a321a02637cf74ea,PennController,16,0,experiment,NULL,Scale,response,Choice,Sometimes,1743681983387,When you have to create a password for a new account%2C how often do you use strong passwords (different from any other password you used in the past%2C with many special characters and really long)?,experiment,NULL
