#
# Results on Wed, 02 Apr 2025 16:56:05 GMT
# USER AGENT: Mozilla/5.0 (Macintosh; Intel Mac OS X 10_15_7) AppleWebKit/605.1.15 (KHTML, like Gecko) Version/18.3.1 Safari/605.1.15
# Design number was non-random = 1
#
# Columns below this comment are as follows:
# 1. Results reception time.
# 2. MD5 hash of participant's IP address.
# 3. Controller name.
# 4. Order number of item.
# 5. Inner element number.
# 6. Label.
# 7. Latin Square Group.
# 8. PennElementType.
# 9. PennElementName.
# 10. Parameter.
# 11. Value.
# 12. EventTime.
# 13. Comments.
1743612965,51fee900c76b7533e54960ec2f063c22,PennController,1,0,intro,NULL,PennController,0,_Trial_,Start,1743612630631,NULL
1743612965,51fee900c76b7533e54960ec2f063c22,PennController,1,0,intro,NULL,PennController,0,_Trial_,End,1743612632530,NULL
1743612965,51fee900c76b7533e54960ec2f063c22,PennController,2,0,consent-high-sd,NULL,PennController,1,_Trial_,Start,1743612632533,NULL
1743612965,51fee900c76b7533e54960ec2f063c22,PennController,2,0,consent-high-sd,NULL,PennController,1,_Trial_,End,1743612633975,NULL
# 13. age.
# 14. gender.
# 15. occupation.
# 16. nationality.
# 17. Comments.
1743612965,51fee900c76b7533e54960ec2f063c22,PennController,3,0,personal-info,NULL,PennController,2,_Trial_,Start,1743612633978,24,Female,Student,NULL,NULL
1743612965,51fee900c76b7533e54960ec2f063c22,PennController,3,0,personal-info,NULL,PennController,2,_Trial_,End,1743612670295,24,Female,Student,NULL,NULL
# 13. Comments.
1743612965,51fee900c76b7533e54960ec2f063c22,PennController,4,0,trial-start,NULL,PennController,3,_Trial_,Start,1743612670298,NULL
1743612965,51fee900c76b7533e54960ec2f063c22,PennController,4,0,trial-start,NULL,PennController,3,_Trial_,End,1743612678816,NULL
1743612965,51fee900c76b7533e54960ec2f063c22,PennController,5,0,trial,NULL,PennController,9,_Trial_,Start,1743612678818,NULL
1743612965,51fee900c76b7533e54960ec2f063c22,PennController,5,0,trial,NULL,PennController,9,_Trial_,End,1743612687259,NULL
1743612965,51fee900c76b7533e54960ec2f063c22,PennController,6,0,trial,NULL,PennController,10,_Trial_,Start,1743612687261,NULL
1743612965,51fee900c76b7533e54960ec2f063c22,PennController,6,0,trial,NULL,PennController,10,_Trial_,End,1743612696063,NULL
1743612965,51fee900c76b7533e54960ec2f063c22,PennController,7,0,trial,NULL,PennController,11,_Trial_,Start,1743612696065,NULL
1743612965,51fee900c76b7533e54960ec2f063c22,PennController,7,0,trial,NULL,PennController,11,_Trial_,End,1743612705413,NULL
1743612965,51fee900c76b7533e54960ec2f063c22,PennController,8,0,experiment-start-high-sd,NULL,PennController,4,_Trial_,Start,1743612705414,NULL
1743612965,51fee900c76b7533e54960ec2f063c22,PennController,8,0,experiment-start-high-sd,NULL,PennController,4,_Trial_,End,1743612712066,NULL
# 13. question.
# 14. type.
# 15. Comments.
1743612965,51fee900c76b7533e54960ec2f063c22,PennController,9,0,experiment,NULL,PennController,12,_Trial_,Start,1743612712068,How often do you share personal and sensitive information with chatbots (e.g. sexual orientation%2C healthcare data)?,experiment,NULL
1743612965,51fee900c76b7533e54960ec2f063c22,PennController,9,0,experiment,NULL,MouseTracker,mouse,Move,x634y491w1265h749t601+0-1t6+0-2t12+0-2t16+0-6t17+2-15t16+3-19t17+3-24t17+2-29t15+0-28t16-1-19t18-5-22t18-9-22t15-3-7t18-6-8t15-4-4t18-4-3t17-3-3t16-3-1t17-2-2t17-2-1t17-1-1t16-1+0t16-1+0t17-1+0t5094+0+0t6+0+2t14+0+3t16+0+6t17-1+7t17+0+6t15+0+10t17+0+12t16+0+10t18+0+9t17+1+5t15+0+3t17+1+3t17+0+1t17+1+2t17+0+1t17+0+1t16+1+0t17+1+1t16+1+0t17+0+1t17+1+1t16+0+0t32+0+0t7-2+0t11-3-1t16-11-5t18-11-3t16-14-3t16-13-2t18-11-1t16-6+0t17-6+0t16-4+0t17-4+0t17-3+0t17-1+0t15-1+0t18-1+0t17-1+0t16-1+0t17-1+0t17-1+0t16-1+0t17-2+0t16-1+0t16-2+0t17-4+0t17-3+1t17-3+2t17-3+1t16-2+2t17-2+0t16-1+1t18-1+0t17+0+0t16-1+0t16+0+0t17-1+0t17-1+0t17+0+0t15-1+1t17+0+0t16-1+0t18-1+0t17+0+1t17-1+0t411+0+0t7+4+1t14+5+3t18+19+12t16+20+15t16+26+20t16+23+21t18+22+25t16+10+11t15+8+10t18+5+4t17+3+3t16+1+1t17+2+1t17+1+0t16+1+0t18+0+0t16+0+0t602+0-1t7+0-2t9+0-2t15+0-2t16+0-5t16+0-4t18+0-5t16+0-2t17+0-1t16+0-1t16+0+0t17-1+0t16+0+0t18+0+0t17+0+0t19+0+1,1743612712071,How often do you share personal and sensitive information with chatbots (e.g. sexual orientation%2C healthcare data)?,experiment,NULL
1743612965,51fee900c76b7533e54960ec2f063c22,PennController,9,0,experiment,NULL,MouseTracker,mouse,Click,634:491,1743612712078,How often do you share personal and sensitive information with chatbots (e.g. sexual orientation%2C healthcare data)?,experiment,NULL
1743612965,51fee900c76b7533e54960ec2f063c22,PennController,9,0,experiment,NULL,Scale,response,Choice,Few times,1743612719315,How often do you share personal and sensitive information with chatbots (e.g. sexual orientation%2C healthcare data)?,experiment,NULL
1743612965,51fee900c76b7533e54960ec2f063c22,PennController,9,0,experiment,NULL,MouseTracker,mouse,Click,477:350,1743612719315,How often do you share personal and sensitive information with chatbots (e.g. sexual orientation%2C healthcare data)?,experiment,NULL
1743612965,51fee900c76b7533e54960ec2f063c22,PennController,9,0,experiment,NULL,PennController,12,_Trial_,End,1743612721567,How often do you share personal and sensitive information with chatbots (e.g. sexual orientation%2C healthcare data)?,experiment,NULL
1743612965,51fee900c76b7533e54960ec2f063c22,PennController,10,0,experiment,NULL,PennController,13,_Trial_,Start,1743612721569,How often do you ask chatbots for advice in topics related to your personal life (e.g. relationships%2C emotions%2C feelings)?,experiment,NULL
1743612965,51fee900c76b7533e54960ec2f063c22,PennController,10,0,experiment,NULL,MouseTracker,mouse,Move,x626y453w1265h749t6529-2-4t7-3-5t8-3-4t15-3-4t16-10-8t17-11-7t17-35-17t17-30-12t15-31-13t18-21-9t15-24-12t18-17-8t17-7-4t16-7-4t17-4-1t17-2-1t17+0+0t15-1+0t17-2+3t16-2+3t18-5+4t16-2+2t17-3+2t16-3+3t17-4+3t17-4+2t17-4+2t17-5+1t16-5+1t17-6+0t16-4+0t16-5+0t18-6-1t16-3-1t16-2-1t17-2-2t17-1-1t16-1-2t17+0-1t17-1-1t17-1-1t17+0+0t17-1+0t15+0-1t17+0+0t16-1+0t18+0+0t38+0+0t346+1+0t7+4+0t9+10+2t16+33+9t17+50+16t16+54+23t17+34+17t17+36+21t16+18+10t17+15+10t18+12+7t16+7+3t20+8+3t12+8+3t17+5+1t17+7+2t17+3+1t16+1+0t16+0+0t18+1+0t29+0+0t7+0-2t14+0-2t17+0-3t17-2-5t16-1-4t16-2-3t17-1-4t16-1-1t16-1+0t17+0+0t17-1+0t16+0+0t18+0+0,1743612721570,How often do you ask chatbots for advice in topics related to your personal life (e.g. relationships%2C emotions%2C feelings)?,experiment,NULL
1743612965,51fee900c76b7533e54960ec2f063c22,PennController,10,0,experiment,NULL,MouseTracker,mouse,Click,626:453,1743612721576,How often do you ask chatbots for advice in topics related to your personal life (e.g. relationships%2C emotions%2C feelings)?,experiment,NULL
1743612965,51fee900c76b7533e54960ec2f063c22,PennController,10,0,experiment,NULL,Scale,response,Choice,Never,1743612728964,How often do you ask chatbots for advice in topics related to your personal life (e.g. relationships%2C emotions%2C feelings)?,experiment,NULL
1743612965,51fee900c76b7533e54960ec2f063c22,PennController,10,0,experiment,NULL,MouseTracker,mouse,Click,342:354,1743612728964,How often do you ask chatbots for advice in topics related to your personal life (e.g. relationships%2C emotions%2C feelings)?,experiment,NULL
1743612965,51fee900c76b7533e54960ec2f063c22,PennController,10,0,experiment,NULL,PennController,13,_Trial_,End,1743612730055,How often do you ask chatbots for advice in topics related to your personal life (e.g. relationships%2C emotions%2C feelings)?,experiment,NULL
1743612965,51fee900c76b7533e54960ec2f063c22,PennController,11,0,experiment,NULL,PennController,14,_Trial_,Start,1743612730058,How often do you see news or articles about artificial intelligence in your daily life (e.g.%2C on social media%2C news websites%2C or TV)?,filler,NULL
1743612965,51fee900c76b7533e54960ec2f063c22,PennController,11,0,experiment,NULL,MouseTracker,mouse,Move,x640y458w1265h749t4154+0-1t8+0-2t8+0-1t12+0-5t17+0-15t16+0-17t18+0-16t16+2-19t16+0-11t17+1-10t16+0-9t17+0-2t17+0-2t16-1-1t17-1-2t17-1-1t17-1-1t16-2-2t17-2-2t17-1-1t16-2-1t16-1-1t17-1+0t17-1+0t17-1+1t16-1+1t16-1+1t17-1+1t18-1+2t16-1+1t17-1+2t17-1+1t16-1+1t17-1+0t16+0+1t16+0+0t17-1+0t17+0+1t664+0-1t8+0+0t11+0+0t17+0-1t17+0+0t16-1-1t17+0+0t16-1+0t467+1+0t7+0+0t9+1+0t16+1+0t17+0+1t17+1+0t17+0+0t17+1+0t17+0+0t16+0+0t19+0+0t24+0+0t593+0+2t8+0+3t7+0+7t15+1+9t16+2+19t16+4+17t18+7+23t17+3+12t16+2+6t17+1+3t16+1+1t17+0+1t17+0+0t229+0+0t8+0+1t13+0+0t43-1+0,1743612730059,How often do you see news or articles about artificial intelligence in your daily life (e.g.%2C on social media%2C news websites%2C or TV)?,filler,NULL
1743612965,51fee900c76b7533e54960ec2f063c22,PennController,11,0,experiment,NULL,MouseTracker,mouse,Click,640:458,1743612730066,How often do you see news or articles about artificial intelligence in your daily life (e.g.%2C on social media%2C news websites%2C or TV)?,filler,NULL
1743612965,51fee900c76b7533e54960ec2f063c22,PennController,11,0,experiment,NULL,Scale,response,Choice,Sometimes,1743612736408,How often do you see news or articles about artificial intelligence in your daily life (e.g.%2C on social media%2C news websites%2C or TV)?,filler,NULL
1743612965,51fee900c76b7533e54960ec2f063c22,PennController,11,0,experiment,NULL,MouseTracker,mouse,Click,621:347,1743612736408,How often do you see news or articles about artificial intelligence in your daily life (e.g.%2C on social media%2C news websites%2C or TV)?,filler,NULL
1743612965,51fee900c76b7533e54960ec2f063c22,PennController,11,0,experiment,NULL,PennController,14,_Trial_,End,1743612737299,How often do you see news or articles about artificial intelligence in your daily life (e.g.%2C on social media%2C news websites%2C or TV)?,filler,NULL
1743612965,51fee900c76b7533e54960ec2f063c22,PennController,12,0,experiment,NULL,PennController,15,_Trial_,Start,1743612737301,How often do you chat with chatbots even if you don't need anything from them (e.g. just to chat)?,experiment,NULL
1743612965,51fee900c76b7533e54960ec2f063c22,PennController,12,0,experiment,NULL,MouseTracker,mouse,Move,x641y451w1265h749t4227+0-5t7+0-6t17-2-15t16-5-15t17-5-15t16-11-17t16-18-22t18-24-17t17-31-14t16-38-14t17-39-12t17-26-6t16-28-5t16-22-2t17-10+0t17-12+0t16-5+1t18-3+4t15-3+6t17-4+11t17-4+14t17-5+14t17-3+10t17-2+10t17-2+6t16-1+3t15+0+2t17+0+1t18-1+0t16+0+0t17+0+1t16+0+0t30+0+0t32+0+0t16+0+0t16+0+0t8+0-1t15-1-1t16+0-3t18+0-4t15+0-3t18+0-2t15+0-1t18+0-2t17+0+0t17+0-1t16+0+0t19+0+0t16+0+0t15+0+0t16+1+0t18+0+0t17+0+0t16+1+0t16+0+0t17+0+0t16+1+0t17+0+0t17+1+0t17+0+0t17+0+0t16+1+0t16+0+0t17+1+0t17+0+0t11+0+0t382+1+0t7+4+0t16+8+2t17+52+19t16+47+19t17+39+17t16+46+19t17+27+12t17+22+11t17+10+4t18+10+3t16+6+2t15+4+1t17+3+0t16+2+0t18+2+0t16+0+0t17+1+0t17+1+0t16+0+0t16+1-1t17+1-2t17+1+0t17+0-1t17+1+0,1743612737302,How often do you chat with chatbots even if you don't need anything from them (e.g. just to chat)?,experiment,NULL
1743612965,51fee900c76b7533e54960ec2f063c22,PennController,12,0,experiment,NULL,MouseTracker,mouse,Click,641:451,1743612737307,How often do you chat with chatbots even if you don't need anything from them (e.g. just to chat)?,experiment,NULL
1743612965,51fee900c76b7533e54960ec2f063c22,PennController,12,0,experiment,NULL,Scale,response,Choice,Never,1743612742725,How often do you chat with chatbots even if you don't need anything from them (e.g. just to chat)?,experiment,NULL
1743612965,51fee900c76b7533e54960ec2f063c22,PennController,12,0,experiment,NULL,MouseTracker,mouse,Click,342:351,1743612742725,How often do you chat with chatbots even if you don't need anything from them (e.g. just to chat)?,experiment,NULL
1743612965,51fee900c76b7533e54960ec2f063c22,PennController,12,0,experiment,NULL,PennController,15,_Trial_,End,1743612743497,How often do you chat with chatbots even if you don't need anything from them (e.g. just to chat)?,experiment,NULL
1743612965,51fee900c76b7533e54960ec2f063c22,PennController,13,0,experiment,NULL,MouseTracker,mouse,Move,x631y456w1265h749t5820+0+0t7+0-2t8+0-2t13+0-2t17+1-5t17+1-8t16+3-8t16+4-8t17+6-8t17+10-12t16+10-7t17+10-7t16+12-7t18+11-4t16+6-2t17+6-3t17+5-1t17+4-1t16+1+0t16+1+0t17+0+0t17+1+0t16+0+0t17+0-1t17+2-1t15+1-1t18+5-2t17+4-2t17+7-2t16+7-2t18+5-2t16+6-2t16+4-2t16+3-1t18+2+0t15+1-1t17+0+0t144+0+0t23+0+0t8-1+0t9+0+0t17+0+0t16-1+0t16+0+0t18-1+0t16+0+0t17-1+0t17+0+0t18+0+0t73+0+0t96-1+0t177+0+0t31+0+0t16+0+0t8-1+0t16+0+0t16+0+0t14+0+0t17+0+0t17-1+0t32+0+0t40+0+0t481-1+0t8-3+4t8-5+5t15-4+5t16-11+14t16-19+26t17-18+28t17-19+27t16-8+11t17-7+8t16-4+4t17-2+2t17-2+1t17-1+0t17-1+0t16-2-1t17+0-1t16-2-2t16+0-1t17-2-1t17-1-3t17-2-1t16-1-2t17-2-2t17-1-1t16-1-2t16-1-1t18-1-1t16+0+0t16-1+0,1743612743499,How often do you rely on the answers of chatbots without checking them?,experiment,NULL
1743612965,51fee900c76b7533e54960ec2f063c22,PennController,13,0,experiment,NULL,PennController,16,_Trial_,Start,1743612743499,How often do you rely on the answers of chatbots without checking them?,experiment,NULL
1743612965,51fee900c76b7533e54960ec2f063c22,PennController,13,0,experiment,NULL,MouseTracker,mouse,Click,631:456,1743612743506,How often do you rely on the answers of chatbots without checking them?,experiment,NULL
1743612965,51fee900c76b7533e54960ec2f063c22,PennController,13,0,experiment,NULL,Scale,response,Choice,Often,1743612750995,How often do you rely on the answers of chatbots without checking them?,experiment,NULL
1743612965,51fee900c76b7533e54960ec2f063c22,PennController,13,0,experiment,NULL,MouseTracker,mouse,Click,763:350,1743612750995,How often do you rely on the answers of chatbots without checking them?,experiment,NULL
1743612965,51fee900c76b7533e54960ec2f063c22,PennController,13,0,experiment,NULL,PennController,16,_Trial_,End,1743612751824,How often do you rely on the answers of chatbots without checking them?,experiment,NULL
1743612965,51fee900c76b7533e54960ec2f063c22,PennController,14,0,experiment,NULL,PennController,17,_Trial_,Start,1743612751826,How often do you receive suspicious emails or messages that might be phishing attempts?,filler,NULL
1743612965,51fee900c76b7533e54960ec2f063c22,PennController,14,0,experiment,NULL,MouseTracker,mouse,Move,x641y466w1265h749t3455+1+0t8+3-2t8+2-2t11+3-2t17+8-5t17+8-4t17+7-4t16+7-4t17+8-4t17+7-3t16+8-4t16+5-1t18+8-4t16+5-2t17+3-2t17+2-2t16+2-2t17+1-2t17+1-3t17+2-6t16+2-7t17+2-8t16+3-8t16+2-5t17+3-6t16+3-5t18+3-5t16+3-3t16+2-2t18+2-2t17+1-1t16+2-1t17+1-1t16+2-1t18+1-1t16+1+0t16+1-1t17+0+0t24+0+0t105+0+0t15+0+0t16-1+0t8+0+0t16+0+0t15+0+0t17-1+0t18+0+0t16+0+0t16-1+0t17+0+0t17+0+0t16+0+0t21-1+0t15+0+0t16+0+0t25+0+0t32-1+0t64+0+0t377-1+2t7-5+4t9-4+4t17-10+11t16-16+16t18-23+23t16-14+15t16-14+14t18-7+8t18-6+6t16-3+4t18-2+1t14-1+1t16-1+0t18+0+0t16+0+0t23-1+0t10+0+0t17+0-1t17+0+0t16-1-1t17+0-1t17-1+0t16+0+0t16+0+0,1743612751827,How often do you receive suspicious emails or messages that might be phishing attempts?,filler,NULL
1743612965,51fee900c76b7533e54960ec2f063c22,PennController,14,0,experiment,NULL,MouseTracker,mouse,Click,641:466,1743612751832,How often do you receive suspicious emails or messages that might be phishing attempts?,filler,NULL
1743612965,51fee900c76b7533e54960ec2f063c22,PennController,14,0,experiment,NULL,Scale,response,Choice,Often,1743612756444,How often do you receive suspicious emails or messages that might be phishing attempts?,filler,NULL
1743612965,51fee900c76b7533e54960ec2f063c22,PennController,14,0,experiment,NULL,MouseTracker,mouse,Click,761:351,1743612756444,How often do you receive suspicious emails or messages that might be phishing attempts?,filler,NULL
1743612965,51fee900c76b7533e54960ec2f063c22,PennController,14,0,experiment,NULL,PennController,17,_Trial_,End,1743612758583,How often do you receive suspicious emails or messages that might be phishing attempts?,filler,NULL
1743612965,51fee900c76b7533e54960ec2f063c22,PennController,15,0,experiment,NULL,PennController,18,_Trial_,Start,1743612758585,How often do you send and receive messages or emails?,control,NULL
1743612965,51fee900c76b7533e54960ec2f063c22,PennController,15,0,experiment,NULL,MouseTracker,mouse,Move,x651y457w1265h749t4309+2-1t8+6-3t8+8-2t9+9-2t18+28-8t16+40-11t17+38-8t17+31-7t17+18-5t17+18-5t16+16-6t16+13-6t16+11-6t18+14-8t16+5-4t17+4-3t15+2-2t18+1-1t17+1+0t17+0-1t19+0+0t14+0-1t17+0-1t16+1-2t16+0-2t18+0-1t16+0-1t17-1-1t17-2+0t16-2-1t16-2-1t17-2-1t17-2+0t17-1-1t17-1+0t16-1+0t16-1+0t17-1-1t18-1+0t15+0+0t17-1+0t16+0+0t18-1+0t16+0-1t16+0+0t17+0+0t17-1+0t484-1+0t7-3+0t9-6+2t17-17+8t16-31+20t16-44+31t18-45+37t16-27+23t17-22+19t17-20+17t16-8+7t17-7+4t16-3+2t16-2+0t18-2+0t16+0+0t17-1-1t17+0-1t16-1-2t17-1-2t17-1-4t16-1-6t17-1-7t17-1-8t17-1-6t16-1-7t17-1-5t17-2-5t15-1-2t17-1-1t17-1-1t16+0-1t18-1+0t15+0+0t18+0+0t44+0+0t104+0+0t8+0+0t10+0+0t16+0+1t18+1+0t16+0+0t17+0+1t4056+0+0t9+0+0t24+0+0t8+0+0t169+0+0t71+0+0t65+0+0,1743612758586,How often do you send and receive messages or emails?,control,NULL
1743612965,51fee900c76b7533e54960ec2f063c22,PennController,15,0,experiment,NULL,MouseTracker,mouse,Click,651:457,1743612758591,How often do you send and receive messages or emails?,control,NULL
1743612965,51fee900c76b7533e54960ec2f063c22,PennController,15,0,experiment,NULL,Scale,response,Choice,Really often,1743612763752,How often do you send and receive messages or emails?,control,NULL
1743612965,51fee900c76b7533e54960ec2f063c22,PennController,15,0,experiment,NULL,MouseTracker,mouse,Click,897:353,1743612763752,How often do you send and receive messages or emails?,control,NULL
1743612965,51fee900c76b7533e54960ec2f063c22,PennController,15,0,experiment,NULL,PennController,18,_Trial_,End,1743612769859,How often do you send and receive messages or emails?,control,NULL
1743612965,51fee900c76b7533e54960ec2f063c22,PennController,16,0,experiment,NULL,PennController,19,_Trial_,Start,1743612769860,When you have to create a password for a new account%2C how often do you use strong passwords (different from any other password you used in the past%2C with many special characters and really long)?,experiment,NULL
1743612965,51fee900c76b7533e54960ec2f063c22,PennController,16,0,experiment,NULL,MouseTracker,mouse,Move,x644y466w1265h749t557+0+0t7+0-3t8+0-4t17+0-12t16+0-18t17-2-21t16-4-19t16-4-14t16-4-10t18-5-9t17-3-4t15-3-6t18-3-4t18-3-4t16-2-3t16-2-3t16-2-2t18-1-3t15-1+0t18+0-1t16-1+0t7637+1+0t7+2+1t17+6+3t17+7+5t17+7+5t16+4+4t17+4+2t17+2+2t17+0+1t16+1+0t19-1+0t15-2+0t16-7-2t18-23-8t16-23-5t16-25-4t17-29-1t17-21+0t16-23+0t17-13+3t16-11+1t17-6+0t17-3+1t17-1+1t16+0+0t16+0+1t16+0+0t18+1+1t16+1+1t16+1+2t17+1+1t18+1+2t16+3+2t17+2+3t17+4+2t17+3+2t16+3+1t16+2+1t18+3+0t16+1+0t17+0+0t15+1+0t17+0+0t17+0+0t17+1+0t17+0+0t52+0+0t16+0+0t16+0+0t15+0-1t18+0+0t16+0+0t16+0-1t17+0+0t31+0+0t32+0+0t48+0-1t472+0+1t8+3+4t8+5+5t17+14+14t17+23+19t16+26+21t18+20+15t16+19+13t17+8+6t18+6+3t16+2+1t15+2+1t17+2+0t17+2-1t17+3-2t16+2-1t17+1-1t16+1-1t17+0-1t17+1+0t17+2-1t17+1+0t16+2-1t17+1+0t17+1+0t15+0+0t12+0+0,1743612769861,When you have to create a password for a new account%2C how often do you use strong passwords (different from any other password you used in the past%2C with many special characters and really long)?,experiment,NULL
1743612965,51fee900c76b7533e54960ec2f063c22,PennController,16,0,experiment,NULL,MouseTracker,mouse,Click,644:466,1743612769866,When you have to create a password for a new account%2C how often do you use strong passwords (different from any other password you used in the past%2C with many special characters and really long)?,experiment,NULL
1743612965,51fee900c76b7533e54960ec2f063c22,PennController,16,0,experiment,NULL,Scale,response,Choice,Few times,1743612779580,When you have to create a password for a new account%2C how often do you use strong passwords (different from any other password you used in the past%2C with many special characters and really long)?,experiment,NULL
1743612965,51fee900c76b7533e54960ec2f063c22,PennController,16,0,experiment,NULL,MouseTracker,mouse,Click,478:351,1743612779580,When you have to create a password for a new account%2C how often do you use strong passwords (different from any other password you used in the past%2C with many special characters and really long)?,experiment,NULL
1743612965,51fee900c76b7533e54960ec2f063c22,PennController,16,0,experiment,NULL,PennController,19,_Trial_,End,1743612780368,When you have to create a password for a new account%2C how often do you use strong passwords (different from any other password you used in the past%2C with many special characters and really long)?,experiment,NULL
1743612965,51fee900c76b7533e54960ec2f063c22,PennController,17,0,experiment,NULL,PennController,20,_Trial_,Start,1743612780369,How often do you accept all the cookies (including the non-necessary ones) while browsing the internet?,experiment,NULL
1743612965,51fee900c76b7533e54960ec2f063c22,PennController,17,0,experiment,NULL,MouseTracker,mouse,Move,x625y445w1265h749t563+0+0t7+0-2t8+0-2t9+1-2t18+2-6t17+2-8t17+4-8t16+4-8t15+4-8t19+4-8t16+3-8t16+3-5t17+2-6t17+2-7t16+1-2t17+0-2t16+0-1t17+0+0t17+0+0t21+0+0t1554+0+0t8+2+0t16+7-2t16+8-2t17+7-2t16+8-1t18+11-2t16+15-2t16+10-2t18+16-3t17+14-3t16+13-3t17+11-3t16+9-2t17+6-2t16+10-2t18+7+0t16+7+0t16+5+0t18+5+0t16+7+0t16+5+0t18+6+1t16+4+1t17+4+2t16+4+2t16+3+2t17+3+2t17+2+1t17+2+1t16+0+0t16+1+1t264-1+0t7-1+0t13-2-1t17-3+0t17-5-2t16-6-1t17-11-2t17-14+0t16-8+0t17-7+0t16-4+0t17-3+0t17-3+0t17-2+0t16-2+0t17-2+0t17-2+0t17-2+1t15-3+0t17-3+1t17-4+1t17-3+1t16-1+0t17-3+1t17-2+1t16-2+0t17-3+1t17-2+1t17-3+0t16-2+1t17-3+0t16-1+0t16-2+1t18-1+0t17-1+0t16+0+1t16+0+0t17+0+0t21+0+0t33+0+0t600+0+1t8+0+1t8+0+1t14+0+2t17+1+2t16+1+2t16+0+1t16+1+1t17+0+1t145+0-1t7+0+0t15+0-1t16+0-2t18+0-2t16+0-2t16+0+0t17+1-1t16+0+0t18+0+0t16+1+0t17+0+0t16+0+0t378+0+2t8-3+4t13-4+7t18-12+18t16-9+15t17-12+16t17-7+9t16-7+9t16-4+4t18-5+2t17-2+0t16-3+0t16-3+0t18-3+0t16-5+0t17-4+0t16-4+0t18-3+0t16-4-1t16-4+0t17-3+0t16-3+0t17-4+2t17-2+2t16-2+2t17-1+2t17-2+2t17-1+2t16-1+1t17-1+1t17-1+1t16+0+0t36+0+0,1743612780370,How often do you accept all the cookies (including the non-necessary ones) while browsing the internet?,experiment,NULL
1743612965,51fee900c76b7533e54960ec2f063c22,PennController,17,0,experiment,NULL,MouseTracker,mouse,Click,625:445,1743612780375,How often do you accept all the cookies (including the non-necessary ones) while browsing the internet?,experiment,NULL
1743612965,51fee900c76b7533e54960ec2f063c22,PennController,17,0,experiment,NULL,MouseTracker,mouse,Click,752:349,1743612784357,How often do you accept all the cookies (including the non-necessary ones) while browsing the internet?,experiment,NULL
1743612965,51fee900c76b7533e54960ec2f063c22,PennController,17,0,experiment,NULL,Scale,response,Choice,Often,1743612785369,How often do you accept all the cookies (including the non-necessary ones) while browsing the internet?,experiment,NULL
1743612965,51fee900c76b7533e54960ec2f063c22,PennController,17,0,experiment,NULL,MouseTracker,mouse,Click,757:352,1743612785369,How often do you accept all the cookies (including the non-necessary ones) while browsing the internet?,experiment,NULL
1743612965,51fee900c76b7533e54960ec2f063c22,PennController,17,0,experiment,NULL,PennController,20,_Trial_,End,1743612786250,How often do you accept all the cookies (including the non-necessary ones) while browsing the internet?,experiment,NULL
1743612965,51fee900c76b7533e54960ec2f063c22,PennController,18,0,experiment,NULL,PennController,21,_Trial_,Start,1743612786251,How often do you publicly share your online banking credentials on social media or public forums?,control,NULL
1743612965,51fee900c76b7533e54960ec2f063c22,PennController,18,0,experiment,NULL,MouseTracker,mouse,Move,x638y452w1265h749t4631+1+0t7+1-1t11+3-2t17+5-3t17+6-4t17+4-3t17+7-3t16+6-3t17+6-2t16+4-1t16+4-2t17+5-2t16+3-1t18+2+0t15+1-1t18+1+0t16+0+0t3067+0+0t8+2-1t8+3-2t16+6-4t15+4-3t17+11-7t18+4-4t16+5-3t17+5-3t17+2-2t16+2-2t17+1-2t17+0-1t16+0-1t17-4-2t16-9-3t16-13-2t18-24-5t17-16-2t16-12-2t16-7-2t18-6-1t16-4-2t17-3-1t17-2-1t17-1-1t16+0-1t16-1-1t17+0+0t17+0+0t16+0-1t17+0+0t16+0-1t17-1-1t17-1+0t17-1-2t16-2-1t17-2-1t17-1-2t17-1-1t16-1-1t16-1+0t17-1-2t17-1+0t17+0+0t343+0+1t7+0+3t15+0+2t17+1+9t17+4+16t17+3+10t16+2+6t16+3+10t18+3+6t16+2+5t17+2+5t17+2+5t17+2+4t16+0+2t17+1+2t16+0+1t17+0+1t17+0+1t23+0+0t10+0+0t16+0+0t17-1+0t17+0+0t17+0+0,1743612786252,How often do you publicly share your online banking credentials on social media or public forums?,control,NULL
1743612965,51fee900c76b7533e54960ec2f063c22,PennController,18,0,experiment,NULL,MouseTracker,mouse,Click,638:452,1743612786258,How often do you publicly share your online banking credentials on social media or public forums?,control,NULL
1743612965,51fee900c76b7533e54960ec2f063c22,PennController,18,0,experiment,NULL,Scale,response,Choice,Sometimes,1743612795035,How often do you publicly share your online banking credentials on social media or public forums?,control,NULL
1743612965,51fee900c76b7533e54960ec2f063c22,PennController,18,0,experiment,NULL,MouseTracker,mouse,Click,627:350,1743612795035,How often do you publicly share your online banking credentials on social media or public forums?,control,NULL
1743612965,51fee900c76b7533e54960ec2f063c22,PennController,18,0,experiment,NULL,PennController,21,_Trial_,End,1743612795764,How often do you publicly share your online banking credentials on social media or public forums?,control,NULL
1743612965,51fee900c76b7533e54960ec2f063c22,PennController,19,0,experiment,NULL,PennController,22,_Trial_,Start,1743612795765,How often do you read (even only partially) the privacy policy of a website before accepting it?,experiment,NULL
1743612965,51fee900c76b7533e54960ec2f063c22,PennController,19,0,experiment,NULL,MouseTracker,mouse,Move,x651y439w1265h749t518+0+0t8+0-2t8+1-2t15+2-3t16+4-6t17+6-11t16+3-7t17+2-5t17+2-6t15+2-4t18+2-4t17+1-3t17+0-3t16+1-2t17+0-2t17+0-1t16+0+0t17+0-1t17+0+0t17+0-1t16+0+0t31+0+0t48+0+0t72+0+0t3481+0-1t7-2-2t9-5-3t16-14-8t16-25-8t17-42-9t16-30+0t17-36+0t17-23+0t17-24+0t17-18+2t16-14+2t18-8+1t16-6+0t16-5+1t17-4+1t16-4+2t16-3+1t17-1+1t16-1+0t17+0+1t207-1+0t8-3-1t7-3-1t12-3-1t17-6-1t16-9-1t18-9-1t16-7-2t16-6+0t16-3-1t18-2+0t17+0+0t16+0+0t135-1+0t24+0+0t7+0+0t17-1+0t17+0+0t16-1+0t16-1+0t18-1+0t16-1+0t17-1+0t17-1+0t17-2+0t17+0+0t15-1+0t17+0+0t338+0+0t8+2+0t7+4+2t14+4+3t17+27+13t16+48+20t16+54+24t16+33+15t18+36+20t17+18+9t16+11+5t16+6+2t19+7+2t16+6+1t16+5+0t17+3+0t16+2+0t18+2+0t16+1-1t15+1-1t17+1+0t18+0-2t15+1+0t17+0-1t18+1+0t15+0+0t18+1+0,1743612795766,How often do you read (even only partially) the privacy policy of a website before accepting it?,experiment,NULL
1743612965,51fee900c76b7533e54960ec2f063c22,PennController,19,0,experiment,NULL,MouseTracker,mouse,Click,651:439,1743612795769,How often do you read (even only partially) the privacy policy of a website before accepting it?,experiment,NULL
1743612965,51fee900c76b7533e54960ec2f063c22,PennController,19,0,experiment,NULL,Scale,response,Choice,Never,1743612801405,How often do you read (even only partially) the privacy policy of a website before accepting it?,experiment,NULL
1743612965,51fee900c76b7533e54960ec2f063c22,PennController,19,0,experiment,NULL,MouseTracker,mouse,Click,349:348,1743612801405,How often do you read (even only partially) the privacy policy of a website before accepting it?,experiment,NULL
1743612965,51fee900c76b7533e54960ec2f063c22,PennController,19,0,experiment,NULL,PennController,22,_Trial_,End,1743612802145,How often do you read (even only partially) the privacy policy of a website before accepting it?,experiment,NULL
1743612965,51fee900c76b7533e54960ec2f063c22,PennController,20,0,experiment,NULL,MouseTracker,mouse,Move,x623y459w1265h749t5195+0+0t7-1-2t8+0-2t17-4-5t16-6-8t17-12-12t16-15-12t17-18-13t17-20-14t15-15-11t18-17-12t17-14-9t17-11-7t17-10-4t15-8-3t17-8-2t17-13-2t16-9+0t17-8-1t16-6+0t18-8+0t16-7+0t16-6+0t16-5+0t18-5+0t18-5+0t16-4+0t16-3+0t17-3+1t16+0+0t56+1+0t8+1+0t8+2+0t12+2+1t16+7+1t17+12+1t17+14+1t17+13+2t16+9+1t16+8+1t16+6+0t18+7+0t17+4+0t16+4+0t16+3+0t18+2+1t16+1+0t17+1+0t16+0+0t52+1+0t15+0+0t17+0+0t16+0+0t17+0+0t17+1+0t22+0+0t729-1+0t8-3+0t8-4-1t15-5+0t17-14-1t16-17-1t18-15+0t16-12+0t17-9+1t17-8+1t16-5+2t17-5+0t16-4+1t18-3+1t16-2+0t16-1+0t16-1+0t18-1+0t17+0+0t16-1+0t16-1+0t17-1+0t18-1+0t16-1+0t17-2+0t16-3+0t17-4+0t16-3+0t17-4+0t16-2+0t18-2+0t17-1+0t15+0+0t17-1+0t17+0+0t47+0+0t310+1+0t8+4+0t18+9+2t16+33+10t17+45+15t17+60+20t16+43+16t18+44+18t18+20+11t15+11+5t16+10+5t16+5+3t17+4+2t17+1+1t17+2+1t16+0+0t17+1+0t17+0+0t18+1+0t16+1+0t16+2+1t16+2+1t17+1+0t17+1+1t15+0+0,1743612802147,How often do you watch tutorial videos or read guides to learn how to use new apps or digital tools?,filler,NULL
1743612965,51fee900c76b7533e54960ec2f063c22,PennController,20,0,experiment,NULL,PennController,23,_Trial_,Start,1743612802147,How often do you watch tutorial videos or read guides to learn how to use new apps or digital tools?,filler,NULL
1743612965,51fee900c76b7533e54960ec2f063c22,PennController,20,0,experiment,NULL,MouseTracker,mouse,Click,623:459,1743612802153,How often do you watch tutorial videos or read guides to learn how to use new apps or digital tools?,filler,NULL
1743612965,51fee900c76b7533e54960ec2f063c22,PennController,20,0,experiment,NULL,Scale,response,Choice,Never,1743612809713,How often do you watch tutorial videos or read guides to learn how to use new apps or digital tools?,filler,NULL
1743612965,51fee900c76b7533e54960ec2f063c22,PennController,20,0,experiment,NULL,MouseTracker,mouse,Click,344:353,1743612809713,How often do you watch tutorial videos or read guides to learn how to use new apps or digital tools?,filler,NULL
1743612965,51fee900c76b7533e54960ec2f063c22,PennController,20,0,experiment,NULL,PennController,23,_Trial_,End,1743612810438,How often do you watch tutorial videos or read guides to learn how to use new apps or digital tools?,filler,NULL
1743612965,51fee900c76b7533e54960ec2f063c22,PennController,21,0,experiment,NULL,PennController,24,_Trial_,Start,1743612810440,How often do you deploy 2-factor authentication (2FA)?,experiment,NULL
1743612965,51fee900c76b7533e54960ec2f063c22,PennController,21,0,experiment,NULL,MouseTracker,mouse,Move,x645y465w1265h749t970+0+0t16+0-1t9+0+0t18+0+0t17+0-1t16+0-1t17+0-1t17+1-1t17+0-1t16+0-1t16+0-1t17+0+0t17+0-1t16+1+0t17+0+0t17+0-1t17+0+0t16+0+0t29+0+0t48+0+0t64+0-1t88+1+0t1666+1-1t8+3-2t13+4-2t16+9-5t17+14-7t17+16-7t16+15-7t16+15-4t17+16-5t16+9-3t17+9-2t17+7-3t16+5-1t18+6-2t16+4-2t17+4-2t17+4-1t16+3-2t17+3-2t16+6-3t17+8-4t17+24-12t16+13-7t17+14-7t16+8-5t17+8-4t17+6-3t17+3-2t16+2-2t18+1-1t17+1+0t16+0-1t16+0+0t17+0-1t17+0+0t135+0+0t16+0+0t15+0+0t16-1+0t17+0+0t17+0+0t24+0+1t9+0+0t16+0+0t18+0+0t16+0+1t17+1+1t17+1+0t16+1+1t17+2+1t17+1+0t15+0+0t18+1+0t16+1+0t473-1+0t7-2+0t8-4+0t12-4+0t17-10+1t17-23+5t16-42+13t17-28+12t16-37+19t17-32+18t17-39+25t17-13+9t16-15+12t16-12+13t17-8+9t16-6+9t18-2+5t16-3+5t17-1+5t17+0+4t17+0+3t15+0+4t18+0+4t16+1+4t17+1+4t16+2+4t17+2+4t17+2+4t16+2+2t17+1+2t17+0+1t17+1+1t17+0+1t15+1+0t17+1+1t16+0+0t18+2+0t16+1+0t16+1+0t18+1-1t16+2-1t17+2-2t17+3-2t16+2-2t18+1-2t16+1-1t16+0-1t18+0+0t16+0-1t15+0-1t18+0-1t16+0+0t17+0-1t15+0-1t17-1-1t18-1-2t15-1-4t16-3-6t17-2-10t17-2-13t17-2-19t16+0-11t17+0-7t18+0-7t16+0-5t17+0-2t17+0-2t17+0+0t28-1+0t8+0+0t46+0+0,1743612810441,How often do you deploy 2-factor authentication (2FA)?,experiment,NULL
1743612965,51fee900c76b7533e54960ec2f063c22,PennController,21,0,experiment,NULL,MouseTracker,mouse,Click,645:465,1743612810446,How often do you deploy 2-factor authentication (2FA)?,experiment,NULL
1743612965,51fee900c76b7533e54960ec2f063c22,PennController,21,0,experiment,NULL,Scale,response,Choice,Really often,1743612814786,How often do you deploy 2-factor authentication (2FA)?,experiment,NULL
1743612965,51fee900c76b7533e54960ec2f063c22,PennController,21,0,experiment,NULL,MouseTracker,mouse,Click,896:347,1743612814786,How often do you deploy 2-factor authentication (2FA)?,experiment,NULL
1743612965,51fee900c76b7533e54960ec2f063c22,PennController,21,0,experiment,NULL,PennController,24,_Trial_,End,1743612816315,How often do you deploy 2-factor authentication (2FA)?,experiment,NULL
# 13. Comments.
1743612965,51fee900c76b7533e54960ec2f063c22,PennController,22,0,manipulation-check-start,NULL,PennController,5,_Trial_,Start,1743612816317,NULL
1743612965,51fee900c76b7533e54960ec2f063c22,PennController,22,0,manipulation-check-start,NULL,PennController,5,_Trial_,End,1743612824898,NULL
1743612965,51fee900c76b7533e54960ec2f063c22,PennController,23,0,manipulation-check,NULL,PennController,6,_Trial_,Start,1743612824899,NULL
1743612965,51fee900c76b7533e54960ec2f063c22,PennController,23,0,manipulation-check,NULL,Scale,response,Choice,Not agree nor disagree,1743612842593,NULL
1743612965,51fee900c76b7533e54960ec2f063c22,PennController,23,0,manipulation-check,NULL,PennController,6,_Trial_,End,1743612843282,NULL
1743612965,51fee900c76b7533e54960ec2f063c22,PennController,24,0,sd-bias-start,NULL,PennController,7,_Trial_,Start,1743612843284,NULL
1743612965,51fee900c76b7533e54960ec2f063c22,PennController,24,0,sd-bias-start,NULL,PennController,7,_Trial_,End,1743612859652,NULL
1743612965,51fee900c76b7533e54960ec2f063c22,PennController,25,0,sd-bias,NULL,PennController,25,_Trial_,Start,1743612859654,NULL
1743612965,51fee900c76b7533e54960ec2f063c22,PennController,25,0,sd-bias,NULL,Scale,response,Choice,True,1743612866076,NULL
1743612965,51fee900c76b7533e54960ec2f063c22,PennController,25,0,sd-bias,NULL,PennController,25,_Trial_,End,1743612869081,NULL
1743612965,51fee900c76b7533e54960ec2f063c22,PennController,26,0,sd-bias,NULL,PennController,26,_Trial_,Start,1743612869082,NULL
1743612965,51fee900c76b7533e54960ec2f063c22,PennController,26,0,sd-bias,NULL,Scale,response,Choice,True,1743612874929,NULL
1743612965,51fee900c76b7533e54960ec2f063c22,PennController,26,0,sd-bias,NULL,PennController,26,_Trial_,End,1743612875794,NULL
1743612965,51fee900c76b7533e54960ec2f063c22,PennController,27,0,sd-bias,NULL,PennController,27,_Trial_,Start,1743612875795,NULL
1743612965,51fee900c76b7533e54960ec2f063c22,PennController,27,0,sd-bias,NULL,Scale,response,Choice,True,1743612880177,NULL
1743612965,51fee900c76b7533e54960ec2f063c22,PennController,27,0,sd-bias,NULL,PennController,27,_Trial_,End,1743612880793,NULL
1743612965,51fee900c76b7533e54960ec2f063c22,PennController,28,0,sd-bias,NULL,PennController,28,_Trial_,Start,1743612880795,NULL
1743612965,51fee900c76b7533e54960ec2f063c22,PennController,28,0,sd-bias,NULL,Scale,response,Choice,True,1743612889868,NULL
1743612965,51fee900c76b7533e54960ec2f063c22,PennController,28,0,sd-bias,NULL,PennController,28,_Trial_,End,1743612890954,NULL
1743612965,51fee900c76b7533e54960ec2f063c22,PennController,29,0,sd-bias,NULL,PennController,29,_Trial_,Start,1743612890955,NULL
1743612965,51fee900c76b7533e54960ec2f063c22,PennController,29,0,sd-bias,NULL,Scale,response,Choice,True,1743612895103,NULL
1743612965,51fee900c76b7533e54960ec2f063c22,PennController,29,0,sd-bias,NULL,PennController,29,_Trial_,End,1743612898140,NULL
1743612965,51fee900c76b7533e54960ec2f063c22,PennController,30,0,sd-bias,NULL,PennController,30,_Trial_,Start,1743612898142,NULL
1743612965,51fee900c76b7533e54960ec2f063c22,PennController,30,0,sd-bias,NULL,Scale,response,Choice,False,1743612922261,NULL
1743612965,51fee900c76b7533e54960ec2f063c22,PennController,30,0,sd-bias,NULL,PennController,30,_Trial_,End,1743612923235,NULL
1743612965,51fee900c76b7533e54960ec2f063c22,PennController,31,0,sd-bias,NULL,PennController,31,_Trial_,Start,1743612923237,NULL
1743612965,51fee900c76b7533e54960ec2f063c22,PennController,31,0,sd-bias,NULL,Scale,response,Choice,False,1743612927392,NULL
1743612965,51fee900c76b7533e54960ec2f063c22,PennController,31,0,sd-bias,NULL,PennController,31,_Trial_,End,1743612928103,NULL
1743612965,51fee900c76b7533e54960ec2f063c22,PennController,32,0,sd-bias,NULL,PennController,32,_Trial_,Start,1743612928105,NULL
1743612965,51fee900c76b7533e54960ec2f063c22,PennController,32,0,sd-bias,NULL,Scale,response,Choice,True,1743612934306,NULL
1743612965,51fee900c76b7533e54960ec2f063c22,PennController,32,0,sd-bias,NULL,PennController,32,_Trial_,End,1743612935395,NULL
1743612965,51fee900c76b7533e54960ec2f063c22,PennController,33,0,sd-bias,NULL,PennController,33,_Trial_,Start,1743612935397,NULL
1743612965,51fee900c76b7533e54960ec2f063c22,PennController,33,0,sd-bias,NULL,Scale,response,Choice,False,1743612940481,NULL
1743612965,51fee900c76b7533e54960ec2f063c22,PennController,33,0,sd-bias,NULL,PennController,33,_Trial_,End,1743612941180,NULL
1743612965,51fee900c76b7533e54960ec2f063c22,PennController,34,0,sd-bias,NULL,PennController,34,_Trial_,Start,1743612941182,NULL
1743612965,51fee900c76b7533e54960ec2f063c22,PennController,34,0,sd-bias,NULL,Scale,response,Choice,False,1743612946933,NULL
1743612965,51fee900c76b7533e54960ec2f063c22,PennController,34,0,sd-bias,NULL,PennController,34,_Trial_,End,1743612948375,NULL
1743612965,51fee900c76b7533e54960ec2f063c22,PennController,35,0,sd-bias,NULL,PennController,35,_Trial_,Start,1743612948377,NULL
1743612965,51fee900c76b7533e54960ec2f063c22,PennController,35,0,sd-bias,NULL,Scale,response,Choice,True,1743612953026,NULL
1743612965,51fee900c76b7533e54960ec2f063c22,PennController,35,0,sd-bias,NULL,PennController,35,_Trial_,End,1743612954216,NULL
1743612965,51fee900c76b7533e54960ec2f063c22,PennController,36,0,sd-bias,NULL,PennController,36,_Trial_,Start,1743612954218,NULL
1743612965,51fee900c76b7533e54960ec2f063c22,PennController,36,0,sd-bias,NULL,Scale,response,Choice,True,1743612957101,NULL
1743612965,51fee900c76b7533e54960ec2f063c22,PennController,36,0,sd-bias,NULL,PennController,36,_Trial_,End,1743612957937,NULL
1743612965,51fee900c76b7533e54960ec2f063c22,PennController,37,0,sd-bias,NULL,PennController,37,_Trial_,Start,1743612957938,NULL
1743612965,51fee900c76b7533e54960ec2f063c22,PennController,37,0,sd-bias,NULL,Scale,response,Choice,False,1743612962814,NULL
1743612965,51fee900c76b7533e54960ec2f063c22,PennController,37,0,sd-bias,NULL,PennController,37,_Trial_,End,1743612964710,NULL
#
# Results on Thu, 03 Apr 2025 10:28:39 GMT
# USER AGENT: Mozilla/5.0 (Macintosh; Intel Mac OS X 10_15_7) AppleWebKit/537.36 (KHTML, like Gecko) Chrome/134.0.0.0 Safari/537.36
# Design number was non-random = 2
#
# Columns below this comment are as follows:
# 1. Results reception time.
# 2. MD5 hash of participant's IP address.
# 3. Controller name.
# 4. Order number of item.
# 5. Inner element number.
# 6. Label.
# 7. Latin Square Group.
# 8. PennElementType.
# 9. PennElementName.
# 10. Parameter.
# 11. Value.
# 12. EventTime.
# 13. Comments.
1743676119,0454064b334d09c79cc2a0c1b9f157ac,PennController,1,0,intro,NULL,PennController,0,_Trial_,Start,1743673901244,NULL
1743676119,0454064b334d09c79cc2a0c1b9f157ac,PennController,1,0,intro,NULL,PennController,0,_Trial_,End,1743673909733,NULL
1743676119,0454064b334d09c79cc2a0c1b9f157ac,PennController,2,0,consent-high-sd,NULL,PennController,1,_Trial_,Start,1743673909736,NULL
1743676119,0454064b334d09c79cc2a0c1b9f157ac,PennController,2,0,consent-high-sd,NULL,PennController,1,_Trial_,End,1743673926702,NULL
# 13. age.
# 14. gender.
# 15. occupation.
# 16. nationality.
# 17. Comments.
1743676119,0454064b334d09c79cc2a0c1b9f157ac,PennController,3,0,personal-info,NULL,PennController,2,_Trial_,Start,1743673926703,24,Female,Student,German,NULL
1743676119,0454064b334d09c79cc2a0c1b9f157ac,PennController,3,0,personal-info,NULL,PennController,2,_Trial_,End,1743673961730,24,Female,Student,German,NULL
# 13. Comments.
1743676119,0454064b334d09c79cc2a0c1b9f157ac,PennController,4,0,trial-start,NULL,PennController,3,_Trial_,Start,1743673961732,NULL
1743676119,0454064b334d09c79cc2a0c1b9f157ac,PennController,4,0,trial-start,NULL,PennController,3,_Trial_,End,1743673969079,NULL
1743676119,0454064b334d09c79cc2a0c1b9f157ac,PennController,5,0,trial,NULL,PennController,9,_Trial_,Start,1743673969080,NULL
1743676119,0454064b334d09c79cc2a0c1b9f157ac,PennController,5,0,trial,NULL,PennController,9,_Trial_,End,1743673976279,NULL
1743676119,0454064b334d09c79cc2a0c1b9f157ac,PennController,6,0,trial,NULL,PennController,10,_Trial_,Start,1743673976280,NULL
1743676119,0454064b334d09c79cc2a0c1b9f157ac,PennController,6,0,trial,NULL,PennController,10,_Trial_,End,1743673983979,NULL
1743676119,0454064b334d09c79cc2a0c1b9f157ac,PennController,7,0,trial,NULL,PennController,11,_Trial_,Start,1743673983980,NULL
1743676119,0454064b334d09c79cc2a0c1b9f157ac,PennController,7,0,trial,NULL,PennController,11,_Trial_,End,1743673990061,NULL
1743676119,0454064b334d09c79cc2a0c1b9f157ac,PennController,8,0,experiment-start-high-sd,NULL,PennController,4,_Trial_,Start,1743673990061,NULL
1743676119,0454064b334d09c79cc2a0c1b9f157ac,PennController,8,0,experiment-start-high-sd,NULL,PennController,4,_Trial_,End,1743673999912,NULL
# 13. question.
# 14. type.
# 15. Comments.
1743676119,0454064b334d09c79cc2a0c1b9f157ac,PennController,9,0,experiment,NULL,PennController,12,_Trial_,Start,1743673999913,How often do you share personal and sensitive information with chatbots (e.g. sexual orientation%2C healthcare data)?,experiment,NULL
1743676119,0454064b334d09c79cc2a0c1b9f157ac,PennController,9,0,experiment,NULL,MouseTracker,mouse,Click,389:551,1743673999919,How often do you share personal and sensitive information with chatbots (e.g. sexual orientation%2C healthcare data)?,experiment,NULL
1743676119,0454064b334d09c79cc2a0c1b9f157ac,PennController,9,0,experiment,NULL,MouseTracker,mouse,Click,112:351,1743674006494,How often do you share personal and sensitive information with chatbots (e.g. sexual orientation%2C healthcare data)?,experiment,NULL
1743676119,0454064b334d09c79cc2a0c1b9f157ac,PennController,9,0,experiment,NULL,MouseTracker,mouse,Click,109:350,1743674007845,How often do you share personal and sensitive information with chatbots (e.g. sexual orientation%2C healthcare data)?,experiment,NULL
1743676119,0454064b334d09c79cc2a0c1b9f157ac,PennController,9,0,experiment,NULL,MouseTracker,mouse,Click,233:350,1743674014778,How often do you share personal and sensitive information with chatbots (e.g. sexual orientation%2C healthcare data)?,experiment,NULL
1743676119,0454064b334d09c79cc2a0c1b9f157ac,PennController,9,0,experiment,NULL,MouseTracker,mouse,Move,x389y551w778h689t5702+0+0t15-8-2t17-7-4t17-16-9t16-18-11t17-43-31t17-49-38t16-31-27t17-33-27t17-17-17t16-8-9t280-1+0t20-2-1t17-2-1t16-3-2t17-5-2t18-5-3t16-4-2t16-6-4t17-4-2t16-4-2t17-3-2t17-2-1t17-2-1t16-1-1t17-1+0t17-1-1t16+0+0t17+0+0t17+0+0t45-1+0t1137+0+0t53+0+0t48+0+0t17-1+0t17+0+0t16+0+0t17-1+0t16+0-1t35-1+0t392+1+1t24+8+6t16+33+24t17+36+20t16+32+15t17+26+10t17+31+8t16+29+6t17+10+2t17+9+0t16+3+0t17+1+0t202+0+0t15+2+0t16+6+0t17+4+0t17+8+0t17+13+0t16+8+0t17+8+1t16+3+0t17+3+2t17+4+1t16+2+1t17+1+0t17+1+0t16+0+0t18+0+0t5001+0+0t14+0-1t17+0-2t17+0-3t17+0-3t17-1-2t16+0-2t17+0-2t16+0+0t17+0+0t17+0-1t21+0+1t12+0+1t17+0+6t16+0+5t17+0+4t16+0+3t17+0+1t17+0+0t21+1+0t12+0-1t17+1-4t17+2-6t17+0-7t15+0-6t18-2-7t16-8-8t17-12-7t17-15-6t16-18-7t17-14-5t17-15-6t16-16-6t17-13-5t17-8-3t16-9-2t17-6-1t17-4+0t16-4-1t17-1+0t16-2-1t17-1+0t17+0-1t17-1+0t16-1-1t17-1-1t17-2-1t17-2-2t16-2-2t17-2-1t16-1-2t17-1-1t17+0-1t16+0+0t34+0+0t134+0+0t16+2+1t16+5+4t17+16+11t16+5+3t17+13+10t17+8+7t16+7+5t17+6+4t17+7+6t17+6+5t16+4+2t17+4+4t17+3+3t16+1+1t17+1+1t17+1+2t16+2+1t17+1+2t17+3+2t16+2+3t17+2+2t17+2+2t17+1+2t16+2+2t17+2+2t16+1+2t17+1+1t17+1+2t16+1+1t17+4+2t17+1+1t16+5+1t17+4+1t16+5+1t17+3+1t17+2+0t17+1+0t16+1+0t17+1+0t33+0+0,1743673999914,How often do you share personal and sensitive information with chatbots (e.g. sexual orientation%2C healthcare data)?,experiment,NULL
1743676119,0454064b334d09c79cc2a0c1b9f157ac,PennController,9,0,experiment,NULL,Scale,response,Choice,Never,1743674007845,How often do you share personal and sensitive information with chatbots (e.g. sexual orientation%2C healthcare data)?,experiment,NULL
1743676119,0454064b334d09c79cc2a0c1b9f157ac,PennController,9,0,experiment,NULL,Scale,response,Choice,Few times,1743674014778,How often do you share personal and sensitive information with chatbots (e.g. sexual orientation%2C healthcare data)?,experiment,NULL
1743676119,0454064b334d09c79cc2a0c1b9f157ac,PennController,9,0,experiment,NULL,PennController,12,_Trial_,End,1743674015630,How often do you share personal and sensitive information with chatbots (e.g. sexual orientation%2C healthcare data)?,experiment,NULL
1743676119,0454064b334d09c79cc2a0c1b9f157ac,PennController,10,0,experiment,NULL,PennController,13,_Trial_,Start,1743674015633,How often do you ask chatbots for advice in topics related to your personal life (e.g. relationships%2C emotions%2C feelings)?,experiment,NULL
1743676119,0454064b334d09c79cc2a0c1b9f157ac,PennController,10,0,experiment,NULL,MouseTracker,mouse,Click,370:450,1743674015638,How often do you ask chatbots for advice in topics related to your personal life (e.g. relationships%2C emotions%2C feelings)?,experiment,NULL
1743676119,0454064b334d09c79cc2a0c1b9f157ac,PennController,10,0,experiment,NULL,MouseTracker,mouse,Click,233:350,1743674023444,How often do you ask chatbots for advice in topics related to your personal life (e.g. relationships%2C emotions%2C feelings)?,experiment,NULL
1743676119,0454064b334d09c79cc2a0c1b9f157ac,PennController,10,0,experiment,NULL,MouseTracker,mouse,Click,100:352,1743674032412,How often do you ask chatbots for advice in topics related to your personal life (e.g. relationships%2C emotions%2C feelings)?,experiment,NULL
1743676119,0454064b334d09c79cc2a0c1b9f157ac,PennController,10,0,experiment,NULL,MouseTracker,mouse,Move,x370y450w778h689t6218+0+0t13+1-2t16+2-4t17+6-9t16+8-13t17+5-10t17+7-12t17+3-8t16+4-6t17+2-4t17+1-3t17+1-2t16+2-2t17+2-2t17+3-3t16+3-2t17+3-2t17+3-2t16+5-3t17+5-1t16+7-2t17+8-2t17+10-2t16+14-1t17+13-2t17+11+0t17+7+0t16+6-1t16+4+0t17+3+0t18+2+0t16+1-1t16+1+0t18+0+0t16+1+0t16+0+0t17+1+0t17+1+0t16+2+0t17+2+0t16+2+0t17+0+0t17+1+0t17+0+0t50-3+0t16-9+0t17-15-1t17-31-3t17-26-1t16-25-1t17-31-2t16-36-2t17-20+0t17-20-2t16-14+0t17-7-1t17-6-1t16-4+0t17-3+0t17-1+0t16+0+0t17-1+0t17-1+0t15+0+0t18-2+0t17-4+1t16-3+1t17-5+3t16-2+1t17-6+3t17-5+2t17-4+2t16-4+1t17-3+1t17-3+1t16-2+1t17-1+0t16-1+0t17-1+0t17+0+0t17-1+0t16+0+0t17+0-1t17+0+0t16+0+0t17+0-1t17+0+0t711+2+0t22+7+4t17+15+6t16+21+11t17+38+18t17+40+20t16+27+14t18+18+9t16+13+6t16+6+2t17+6+3t307-1+0t27-4+0t16-3+0t17-3+0t16-3+0t17-2+0t17-3+1t16-1+0t17-1+0t17-3+1t16-2+1t17-1+0t16-2+1t17-1+0t17-1+0t17+0+0t16+0+0t17+0+0t334+0+0t16+0+0t1379+0+0t21+0-3t17+0-3t16+0-3t17-1-3t17+0-1t16+0-2t17-1-2t17+0+0t16+0-1t17+0+0t49+0+0t31+0+1t8+0+1t12+0+3t17-1+7t16+0+9t18+0+11t15+0+11t17-1+9t17+0+6t17-1+5t16+0+5t18-1+3t16+0+3t16+0+1t17+0+1t17-1+0t16+0+0t50+0+0t17+0-4t17+0-4t16+0-7t17+1-5t16+1-6t17+0-2t17+0-2t17+1-1t16+0+0t17+0-1t17+0+0t25+0+0t8+0+0t17+0+0t16+0-1t17+0+0t17+0-1t16+0+0t17+0-1t16+0-1t17+0-2t17+0-2t17+0-3t16+0-2t17+0-2t17+0-1t16+0-1t17+0+0t16+0+0t23+0+0t17+0-1t11+0+0t16+0-1t17+0+0t17+0-1t17+1+0t244+0+0t22+0-4t17+2-7t16+1-5t17+2-5t17+0-3t16+1-1t17+0-1t76+0+1t7+0+2t17+0+2t17+0+6t16+0+3t17+0+4t16-1+4t17+0+2t17-1+1t16+0+1t17+0+0t52+0+0t15+0+1t17+0+1t16+0+3t17+0+4t17+0+6t17-1+6t16-1+4t17-1+5t16-1+4t17-1+4t17-1+2t17+0+3t16-1+2t17+0+2t16-1+3t17+0+2t16-1+1t17+0+1t17+0+0t78+0+0t6+0-1t16+0-1t17+0-2t16+0-4t17+0-3t16+0-3t17+1-3t17+0-4t17+1-3t16+0-4t17+1-3t17+0-1t16+0-1t17+0-1t17+0+0t50+0+0t70+0+0t13+0-1t17+0-1t16+0-2t17+0-1t17+0-3t16+0-3t17-1-4t17-2-5t16-5-8t17-9-12t17-14-13t17-19-13t16-16-9t16-27-14t17-20-8t17-14-5t17-17-6t16-15-6t17-10-3t17-11-5t16-3-1t323-1+0t11-1+0t16-6+0t17-15+3t17-11+2t16-13+1t17-12+1t17-6+0t16-6+0t17-3+0t16-2+0t17-1+0t17+0+0t17-1-1t16+0+0t32+0+0t236+0+0t16-1+0t16-1-1t16-2+0t18-4+0t16-3-1t17-4+0t17-4-1t16-4+0t17-2+0t16-2+0t17-1+0t16-1+0t968+0+0t856+0+0t43+0-1t188+1+0t13+2+0t16+10+0t17+15+3t17+21+4t16+24+5t17+29+5t17+17+3t16+28+7t17+17+4t17+17+5t16+19+7t17+15+6t17+20+9t16+16+7t17+9+4t17+8+3t16+4+3t17+3+1t17+2+2t16+0+0t17+3+1t17+2+1t16+2+1t17+1+1t16+2+0t17+1+0t17+1+1t17+0+0t16+1+1t17+0+0t17+1+1t16+0+0t17+1+1t17+0+1t33+0+0,1743674015634,How often do you ask chatbots for advice in topics related to your personal life (e.g. relationships%2C emotions%2C feelings)?,experiment,NULL
1743676119,0454064b334d09c79cc2a0c1b9f157ac,PennController,10,0,experiment,NULL,Scale,response,Choice,Few times,1743674023444,How often do you ask chatbots for advice in topics related to your personal life (e.g. relationships%2C emotions%2C feelings)?,experiment,NULL
1743676119,0454064b334d09c79cc2a0c1b9f157ac,PennController,10,0,experiment,NULL,Scale,response,Choice,Never,1743674032412,How often do you ask chatbots for advice in topics related to your personal life (e.g. relationships%2C emotions%2C feelings)?,experiment,NULL
1743676119,0454064b334d09c79cc2a0c1b9f157ac,PennController,10,0,experiment,NULL,PennController,13,_Trial_,End,1743674033196,How often do you ask chatbots for advice in topics related to your personal life (e.g. relationships%2C emotions%2C feelings)?,experiment,NULL
1743676119,0454064b334d09c79cc2a0c1b9f157ac,PennController,11,0,experiment,NULL,PennController,14,_Trial_,Start,1743674033198,How often do you see news or articles about artificial intelligence in your daily life (e.g.%2C on social media%2C news websites%2C or TV)?,filler,NULL
1743676119,0454064b334d09c79cc2a0c1b9f157ac,PennController,11,0,experiment,NULL,MouseTracker,mouse,Click,392:439,1743674033202,How often do you see news or articles about artificial intelligence in your daily life (e.g.%2C on social media%2C news websites%2C or TV)?,filler,NULL
1743676119,0454064b334d09c79cc2a0c1b9f157ac,PennController,11,0,experiment,NULL,MouseTracker,mouse,Click,521:346,1743674038845,How often do you see news or articles about artificial intelligence in your daily life (e.g.%2C on social media%2C news websites%2C or TV)?,filler,NULL
1743676119,0454064b334d09c79cc2a0c1b9f157ac,PennController,11,0,experiment,NULL,MouseTracker,mouse,Move,x392y439w778h689t4601+0+0t16+0-2t17+0-5t15-2-7t17-1-9t17-3-19t17+0-21t17+0-27t16+0-11t16+0-9t17+0-5t17+0-2t17+0-1t17+0+0t19+1+0t100+0+0t14+0+1t17+0+1t16-1+1t17-1+3t17+0+3t16-1+2t17+0+4t16+0+2t17+0+3t17+6+3t17+7+2t16+5+1t17+18+3t17+13+0t16+13+0t17+7+0t17+12-1t16+11-2t17+9-1t17+6+0t16+7-1t17+5-1t16+4+0t17+4+0t17+1+0t17+1+0t16+2+0t17+0+0t17+1+0t16+1+0t17+0+0t17+1+0t17+0+0t16+1+1t16+1+0t17+1+0t31+0+1t470-1+1t16-6+8t16-8+9t17-14+16t17-9+10t17-13+13t16-11+9t17-9+8t17-9+7t16-7+5t17-7+6t17-3+1t16-7+6t17-4+3t17-6+5t16-3+2t17-3+3t17-3+3t16-3+2t17-1+2t17-2+0t16-1+1t17+0+0t17-1+0t16+0+0t17-1+0t17+0+0t20-1+0t13+0-1t17+0+0t16+0-1t17-1+0t17+0+0t16+0-1t17+0+0t17+0+0t27+0+0,1743674033198,How often do you see news or articles about artificial intelligence in your daily life (e.g.%2C on social media%2C news websites%2C or TV)?,filler,NULL
1743676119,0454064b334d09c79cc2a0c1b9f157ac,PennController,11,0,experiment,NULL,Scale,response,Choice,Often,1743674038845,How often do you see news or articles about artificial intelligence in your daily life (e.g.%2C on social media%2C news websites%2C or TV)?,filler,NULL
1743676119,0454064b334d09c79cc2a0c1b9f157ac,PennController,11,0,experiment,NULL,PennController,14,_Trial_,End,1743674039995,How often do you see news or articles about artificial intelligence in your daily life (e.g.%2C on social media%2C news websites%2C or TV)?,filler,NULL
1743676119,0454064b334d09c79cc2a0c1b9f157ac,PennController,12,0,experiment,NULL,PennController,15,_Trial_,Start,1743674039997,How often do you chat with chatbots even if you don't need anything from them (e.g. just to chat)?,experiment,NULL
1743676119,0454064b334d09c79cc2a0c1b9f157ac,PennController,12,0,experiment,NULL,MouseTracker,mouse,Click,387:463,1743674040001,How often do you chat with chatbots even if you don't need anything from them (e.g. just to chat)?,experiment,NULL
1743676119,0454064b334d09c79cc2a0c1b9f157ac,PennController,12,0,experiment,NULL,MouseTracker,mouse,Click,97:341,1743674043928,How often do you chat with chatbots even if you don't need anything from them (e.g. just to chat)?,experiment,NULL
1743676119,0454064b334d09c79cc2a0c1b9f157ac,PennController,12,0,experiment,NULL,MouseTracker,mouse,Click,105:346,1743674044795,How often do you chat with chatbots even if you don't need anything from them (e.g. just to chat)?,experiment,NULL
1743676119,0454064b334d09c79cc2a0c1b9f157ac,PennController,12,0,experiment,NULL,MouseTracker,mouse,Move,x387y463w778h689t3333-2+0t18-2-1t17-9-4t16-11-4t17-27-10t16-26-10t17-36-13t17-33-14t17-12-6t16-19-9t17-21-11t17-14-9t16-15-8t17-4-2t16-8-4t17-7-3t17-6-2t16-5-2t17-5-1t17-3-1t17-3-1t16-3+0t17-3-1t17-3-1t16-3-1t17-3-1t17-3-1t16-2-1t17-1-1t17-1+0t213+1+0t7+2+0t13+3+0t17+10+4t16+14+5t17+19+9t17+12+6t16+10+4t17+6+3t17+3+2t16+1+1t17+0+0t19+0+0t14-2+0t17-5-2t17-7-4t16-9-4t17-8-5t17-5-2t17-7-6t16-2-1t17-5-3t16-1+0t17-3-2t17-1+0t16-2-1t18-1+0t16-1+0t16+0+0t17+0+0t17-1+0t16-1+0t17-1+0t17-1+0t17-2+1t17-3+0t16-1+0t16-1+0t17-1+0t17-1+0t16+0+0t17-1+0t184+1+0t16+2+0t17+5+1t16+7+3t17+14+6t17+16+6t16+18+7t17+21+8t17+21+9t16+21+10t17+14+6t16+16+8t17+15+6t17+14+7t17+14+7t16+18+9t17+11+5t17+12+6t17+11+5t16+9+4t17+6+3t16+7+2t17+1+1t17+2+1t16+1+0t17+1+0t17+1+0t16+0+0t17+1+0t17+1+1t16+0+0t32+0+0,1743674039997,How often do you chat with chatbots even if you don't need anything from them (e.g. just to chat)?,experiment,NULL
1743676119,0454064b334d09c79cc2a0c1b9f157ac,PennController,12,0,experiment,NULL,Scale,response,Choice,Never,1743674044795,How often do you chat with chatbots even if you don't need anything from them (e.g. just to chat)?,experiment,NULL
1743676119,0454064b334d09c79cc2a0c1b9f157ac,PennController,12,0,experiment,NULL,PennController,15,_Trial_,End,1743674045513,How often do you chat with chatbots even if you don't need anything from them (e.g. just to chat)?,experiment,NULL
1743676119,0454064b334d09c79cc2a0c1b9f157ac,PennController,13,0,experiment,NULL,PennController,16,_Trial_,Start,1743674045514,How often do you rely on the answers of chatbots without checking them?,experiment,NULL
1743676119,0454064b334d09c79cc2a0c1b9f157ac,PennController,13,0,experiment,NULL,MouseTracker,mouse,Click,386:467,1743674045518,How often do you rely on the answers of chatbots without checking them?,experiment,NULL
1743676119,0454064b334d09c79cc2a0c1b9f157ac,PennController,13,0,experiment,NULL,MouseTracker,mouse,Click,516:348,1743674051962,How often do you rely on the answers of chatbots without checking them?,experiment,NULL
1743676119,0454064b334d09c79cc2a0c1b9f157ac,PennController,13,0,experiment,NULL,MouseTracker,mouse,Move,x386y467w778h689t5673+3-2t10+4-4t16+11-10t17+8-6t17+15-12t17+14-8t16+31-17t18+20-9t16+15-7t16+12-5t17+5-3t16+5-2t17+3-2t17+3-2t16+1-2t17+2-2t17+1-2t17+2-1t16+0-1t17+1-1t17+0-1t16+0-1t17+0+0t17-1-1t16-4-2t17-4-1t17-4-2t16-4-2t17-2-1t17-2-1t16+0-1t17-1+0t17-1-1t16+0-1t17-1-1t17+0-1t16-1-1t17+0-1t16-1-1t17+0+0t17+0-1t194+0+1t7+0+2t16+0+2t17-1+6t16-5+16t16-3+13t17-3+10t17-6+12t17-4+10t16-5+7t17-4+7t17-3+4t16-5+3t17-5+3t17-4+1t16-3+1t17-6+1t16-4+1t17-5+0t16-4+0t18-3+0t16-5-1t17-3-1t17-4-1t16-3+0t17-3+0t16-2+0t17-3+0t17-4+0t16-2+0t18-3+0t16-3+1t16-2+1t17-3+1t17-1+0t17+0+0t16-1+0t17-1+0t17+0+0t16+0+0t17+0+0t91-1+0,1743674045515,How often do you rely on the answers of chatbots without checking them?,experiment,NULL
1743676119,0454064b334d09c79cc2a0c1b9f157ac,PennController,13,0,experiment,NULL,Scale,response,Choice,Often,1743674051962,How often do you rely on the answers of chatbots without checking them?,experiment,NULL
1743676119,0454064b334d09c79cc2a0c1b9f157ac,PennController,13,0,experiment,NULL,PennController,16,_Trial_,End,1743674053080,How often do you rely on the answers of chatbots without checking them?,experiment,NULL
1743676119,0454064b334d09c79cc2a0c1b9f157ac,PennController,14,0,experiment,NULL,PennController,17,_Trial_,Start,1743674053081,How often do you receive suspicious emails or messages that might be phishing attempts?,filler,NULL
1743676119,0454064b334d09c79cc2a0c1b9f157ac,PennController,14,0,experiment,NULL,MouseTracker,mouse,Click,399:448,1743674053085,How often do you receive suspicious emails or messages that might be phishing attempts?,filler,NULL
1743676119,0454064b334d09c79cc2a0c1b9f157ac,PennController,14,0,experiment,NULL,MouseTracker,mouse,Click,656:357,1743674058445,How often do you receive suspicious emails or messages that might be phishing attempts?,filler,NULL
1743676119,0454064b334d09c79cc2a0c1b9f157ac,PennController,14,0,experiment,NULL,MouseTracker,mouse,Click,656:357,1743674059161,How often do you receive suspicious emails or messages that might be phishing attempts?,filler,NULL
1743676119,0454064b334d09c79cc2a0c1b9f157ac,PennController,14,0,experiment,NULL,MouseTracker,mouse,Click,658:351,1743674059843,How often do you receive suspicious emails or messages that might be phishing attempts?,filler,NULL
1743676119,0454064b334d09c79cc2a0c1b9f157ac,PennController,14,0,experiment,NULL,MouseTracker,mouse,Move,x399y448w778h689t4522+1-1t11+4-3t16+11-9t17+8-5t16+47-24t17+56-26t17+60-20t17+41-9t16+56-7t17+8+0t17+25+0t206-1+0t10-2+1t17-4+3t17-4+3t16-9+4t17-8+4t17-8+2t16-5+1t17-6+0t17-3+0t16-2+0t17-2+0t17-2+0t16-1-1t17+0+0t17-1+0t17+0-1t16-1-1t18+0+0t15+0-1t17-1+0t17+0-1t548+0+0t664+0+0t21+0+0t17+0-2t16+1+0t17+0-2t17+1-1t16+0-1t17+0+0t17+0+0t444-1+0t22-8+4t17-6+3t17-48+28t16-40+23t17-30+17t16-50+27t17-6+2t17-20+7t17-5+1t16-8+1t17-3+0t17-3+0t16-3+0t18-5+0t15-4-1t17-4+0t17-4+0t17-5+0t16-4+0t17-2+0t17-2+0t16+0+0t18-1+0,1743674053082,How often do you receive suspicious emails or messages that might be phishing attempts?,filler,NULL
1743676119,0454064b334d09c79cc2a0c1b9f157ac,PennController,14,0,experiment,NULL,Scale,response,Choice,Really often,1743674059843,How often do you receive suspicious emails or messages that might be phishing attempts?,filler,NULL
1743676119,0454064b334d09c79cc2a0c1b9f157ac,PennController,14,0,experiment,NULL,PennController,17,_Trial_,End,1743674060579,How often do you receive suspicious emails or messages that might be phishing attempts?,filler,NULL
1743676119,0454064b334d09c79cc2a0c1b9f157ac,PennController,15,0,experiment,NULL,PennController,18,_Trial_,Start,1743674060581,How often do you send and receive messages or emails?,control,NULL
1743676119,0454064b334d09c79cc2a0c1b9f157ac,PennController,15,0,experiment,NULL,MouseTracker,mouse,Click,396:463,1743674060585,How often do you send and receive messages or emails?,control,NULL
1743676119,0454064b334d09c79cc2a0c1b9f157ac,PennController,15,0,experiment,NULL,MouseTracker,mouse,Click,515:357,1743674066861,How often do you send and receive messages or emails?,control,NULL
1743676119,0454064b334d09c79cc2a0c1b9f157ac,PennController,15,0,experiment,NULL,MouseTracker,mouse,Move,x396y463w778h689t5517+2-3t17+7-7t16+8-6t17+8-6t16+12-9t17+15-12t17+12-9t16+13-11t17+12-10t17+5-3t17+6-5t16+6-5t17+4-2t16+1-1t17+0+0t17+1+0t17+0-1t17+0+0t16+0+0t17+0-1t16+1+0t17+0-1t16+0-1t17+1-1t17+0-1t17+0-1t16+1-2t17+1-2t17+1-2t17+1-2t16+0-1t17+0+0t16+0+0t18+0-1t25+1+0t8+0+0t49+0+0t406+0+0t11+0+0t17+0+1t16+0+2t17-1+4t16-12+16t17-13+14t17-18+16t17-20+18t16-21+18t17-14+11t16-15+11t17-8+6t17-8+5t17-4+2t16-3+2t17-1+1t17+0+0t16-1+0t17+0+1t17+0+0t16+0+0t23+0+0t25-1+0t8+0-1t11+0+0t17+0-1t17+0-2t16+0-3t17+0-2t16+2-4t17+1-3t17+3-3t16+2-3t17+2-3t17+2-1t17+1-1t16+0-1t17+1+0t17+0-1t16+1+0t17+0+0t16+0-1t17+0+0t17+0+0t1151+0+0t72+0+0t84-1+0t430+0+0,1743674060581,How often do you send and receive messages or emails?,control,NULL
1743676119,0454064b334d09c79cc2a0c1b9f157ac,PennController,15,0,experiment,NULL,Scale,response,Choice,Often,1743674066861,How often do you send and receive messages or emails?,control,NULL
1743676119,0454064b334d09c79cc2a0c1b9f157ac,PennController,15,0,experiment,NULL,PennController,18,_Trial_,End,1743674071362,How often do you send and receive messages or emails?,control,NULL
1743676119,0454064b334d09c79cc2a0c1b9f157ac,PennController,16,0,experiment,NULL,PennController,19,_Trial_,Start,1743674071364,When you have to create a password for a new account%2C how often do you use strong passwords (different from any other password you used in the past%2C with many special characters and really long)?,experiment,NULL
1743676119,0454064b334d09c79cc2a0c1b9f157ac,PennController,16,0,experiment,NULL,MouseTracker,mouse,Click,389:455,1743674071368,When you have to create a password for a new account%2C how often do you use strong passwords (different from any other password you used in the past%2C with many special characters and really long)?,experiment,NULL
1743676119,0454064b334d09c79cc2a0c1b9f157ac,PennController,16,0,experiment,NULL,MouseTracker,mouse,Click,387:354,1743674080394,When you have to create a password for a new account%2C how often do you use strong passwords (different from any other password you used in the past%2C with many special characters and really long)?,experiment,NULL
1743676119,0454064b334d09c79cc2a0c1b9f157ac,PennController,16,0,experiment,NULL,MouseTracker,mouse,Move,x389y455w778h689t8297+0-1t20+0-4t17-1-5t16+0-7t17+0-6t17+0-6t17+0-4t16+1-5t17+1-3t17+0-3t16+0-2t17+1-3t17+0-3t16+0-3t17+0-2t17+0-3t16+0-1t17+0-1t17+0-2t16+0-1t18+0-2t15+0-3t17+0-3t17+0-2t17+0-3t16-1-4t17-1-5t17+0-3t16-1-3t16+0-2t17-1-2t17+0-2t17+0-1t17+0-1t23+0+0t368+0+1t9+0+3t16+0+6t17+2+14t16+3+16t17+2+18t17+1+7t16+1+11t17+1+9t17+0+5t17+0+2t16+0+1t17+0+1t17+0+1t16+0+0t17+0+1t17-1+0t16+0+0t17+0+0,1743674071364,When you have to create a password for a new account%2C how often do you use strong passwords (different from any other password you used in the past%2C with many special characters and really long)?,experiment,NULL
1743676119,0454064b334d09c79cc2a0c1b9f157ac,PennController,16,0,experiment,NULL,Scale,response,Choice,Sometimes,1743674080394,When you have to create a password for a new account%2C how often do you use strong passwords (different from any other password you used in the past%2C with many special characters and really long)?,experiment,NULL
1743676119,0454064b334d09c79cc2a0c1b9f157ac,PennController,16,0,experiment,NULL,PennController,19,_Trial_,End,1743674080995,When you have to create a password for a new account%2C how often do you use strong passwords (different from any other password you used in the past%2C with many special characters and really long)?,experiment,NULL
1743676119,0454064b334d09c79cc2a0c1b9f157ac,PennController,17,0,experiment,NULL,PennController,20,_Trial_,Start,1743674080997,How often do you accept all the cookies (including the non-necessary ones) while browsing the internet?,experiment,NULL
1743676119,0454064b334d09c79cc2a0c1b9f157ac,PennController,17,0,experiment,NULL,MouseTracker,mouse,Click,396:450,1743674081001,How often do you accept all the cookies (including the non-necessary ones) while browsing the internet?,experiment,NULL
1743676119,0454064b334d09c79cc2a0c1b9f157ac,PennController,17,0,experiment,NULL,MouseTracker,mouse,Click,516:349,1743674090761,How often do you accept all the cookies (including the non-necessary ones) while browsing the internet?,experiment,NULL
1743676119,0454064b334d09c79cc2a0c1b9f157ac,PennController,17,0,experiment,NULL,MouseTracker,mouse,Move,x396y450w778h689t7033+0+0t18+4-4t16+4-4t17+7-7t17+15-13t16+8-7t17+27-21t17+23-14t16+14-8t17+14-6t17+12-5t16+10-3t17+9-3t17+5-1t17+3+0t16+1-1t17+1+0t17+0+0t19+0+0t17+0+0t16+0-1t14+0+0t17+0-1t17+0+0t22+0+0t11-1+0t16-1+0t17-3-1t18-3+0t16-2+0t16-3-1t17-3+0t17-3-1t16-2+0t17-1+0t16-1-1t17+0+0t17+0+0t16-1+0t17+0+0t33+0+0t16+0+0t8+0+0t25-1+0t35+0+0t16+0+0t51+0+0t18+0-1t645+0+0t20+1+0t17+5+0t17+8+1t16+17+1t17+20+1t16+14+1t17+19+2t16+17+1t17+9+1t17+7+0t17+5+0t16+1+0t17+3+0t16+1+0t17+0+0t17+1+0t17+0+0t16+1+0t17+1+0t17+0+0t16+0+0t63+0+0t190+0+0t20-1+0t10+0+0t17-3+0t17-9+1t16-12+2t17-12+1t17-16+0t16-8+1t17-21+0t17-6+0t16-6-1t17-7-1t17-5-1t16-2+0t17-3-1t17-2+0t16-2-1t17-2-1t17-2+0t17-3-1t16-3+0t17-4-1t16-4-1t17-1+0t17-3+0t16-3+0t17-1-1t17-1+0t17+0+0t16+0+0t517-1+0t16-8+7t17-10+8t18-15+11t16-15+10t17-16+11t16-8+4t17-7+5t17-4+3t16-3+2t17-3+2t16-2+1t16-1+1t17-2+1t17-1+0t17-1+1t17-2+1t16-1+0t17-2+1t16-2+1t17-2+1t17-1+2t17-3+3t16-4+4t16-5+6t18-1+2t16-4+6t17-2+2t16+0+1t17+0+0t49+0+0,1743674080997,How often do you accept all the cookies (including the non-necessary ones) while browsing the internet?,experiment,NULL
1743676119,0454064b334d09c79cc2a0c1b9f157ac,PennController,17,0,experiment,NULL,Scale,response,Choice,Often,1743674090761,How often do you accept all the cookies (including the non-necessary ones) while browsing the internet?,experiment,NULL
1743676119,0454064b334d09c79cc2a0c1b9f157ac,PennController,17,0,experiment,NULL,PennController,20,_Trial_,End,1743674091746,How often do you accept all the cookies (including the non-necessary ones) while browsing the internet?,experiment,NULL
1743676119,0454064b334d09c79cc2a0c1b9f157ac,PennController,18,0,experiment,NULL,PennController,21,_Trial_,Start,1743674091747,How often do you publicly share your online banking credentials on social media or public forums?,control,NULL
1743676119,0454064b334d09c79cc2a0c1b9f157ac,PennController,18,0,experiment,NULL,MouseTracker,mouse,Click,390:446,1743674091751,How often do you publicly share your online banking credentials on social media or public forums?,control,NULL
1743676119,0454064b334d09c79cc2a0c1b9f157ac,PennController,18,0,experiment,NULL,MouseTracker,mouse,Click,92:350,1743674096611,How often do you publicly share your online banking credentials on social media or public forums?,control,NULL
1743676119,0454064b334d09c79cc2a0c1b9f157ac,PennController,18,0,experiment,NULL,MouseTracker,mouse,Click,108:348,1743674097428,How often do you publicly share your online banking credentials on social media or public forums?,control,NULL
1743676119,0454064b334d09c79cc2a0c1b9f157ac,PennController,18,0,experiment,NULL,MouseTracker,mouse,Move,x390y446w778h689t3874-3+0t26-15-5t16-14-6t17-9-4t17-33-16t17-46-26t16-31-20t17-32-22t16-15-12t17-8-5t18-4-3t216+0+0t16-4+0t17-3+1t17-2+0t16-5+3t17-8+3t17-10+5t16-9+4t17-8+4t17-7+2t16-6+2t17-4+1t16-4+0t17-2+0t17-4+0t16-2+0t17-1+0t17-2+0t17-1+0t16-1-1t17-1+0t16-1+0t17+0+0t17-1-1t17+0+0t16-1+0t17+0+0t17-1+0t16+0+0t412+0+0t21+1+0t17+1+0t17+3+0t16+5+1t18+3+0t16+5+1t17+2+0t16+3+1t17+1+0t17+0+0t49+0-1t17-1-1t17+0-1t16-2-1t18+0+0t16-1-1t17+0+0t16-1+0t17-1+0t17-1+0t16-1+0t17+0+0t33+0+0t375+0+0t25+10+4t17+14+6t17+29+11t16+44+18t17+27+10t17+32+14t16+21+8t17+12+5t16+16+7t17+9+4t17+10+5t16+5+3t17+5+3t17+2+2t16+3+2t18+1+1t16+1+0t17+0+1t16+0+0t21+1+0t24+0+0t38+0+0t17+1+0t17+0-1t17+2-1t17+3-2t16+3-1t17+4-1t16+3-1t17+3-1t17+2-1t16+2+0t17+1+0t33+0+0,1743674091748,How often do you publicly share your online banking credentials on social media or public forums?,control,NULL
1743676119,0454064b334d09c79cc2a0c1b9f157ac,PennController,18,0,experiment,NULL,Scale,response,Choice,Never,1743674097428,How often do you publicly share your online banking credentials on social media or public forums?,control,NULL
1743676119,0454064b334d09c79cc2a0c1b9f157ac,PennController,18,0,experiment,NULL,PennController,21,_Trial_,End,1743674098430,How often do you publicly share your online banking credentials on social media or public forums?,control,NULL
1743676119,0454064b334d09c79cc2a0c1b9f157ac,PennController,19,0,experiment,NULL,PennController,22,_Trial_,Start,1743674098431,How often do you read (even only partially) the privacy policy of a website before accepting it?,experiment,NULL
1743676119,0454064b334d09c79cc2a0c1b9f157ac,PennController,19,0,experiment,NULL,MouseTracker,mouse,Click,374:443,1743674098435,How often do you read (even only partially) the privacy policy of a website before accepting it?,experiment,NULL
1743676119,0454064b334d09c79cc2a0c1b9f157ac,PennController,19,0,experiment,NULL,MouseTracker,mouse,Click,91:340,1743674106061,How often do you read (even only partially) the privacy policy of a website before accepting it?,experiment,NULL
1743676119,0454064b334d09c79cc2a0c1b9f157ac,PennController,19,0,experiment,NULL,MouseTracker,mouse,Click,91:340,1743674106062,How often do you read (even only partially) the privacy policy of a website before accepting it?,experiment,NULL
1743676119,0454064b334d09c79cc2a0c1b9f157ac,PennController,19,0,experiment,NULL,MouseTracker,mouse,Move,x374y443w778h689t6785-3-1t14-3-2t17-7-2t17-9-4t16-10-5t17-27-16t16-22-12t17-36-19t17-30-14t17-27-13t16-15-6t17-16-6t16-4-2t17-6-2t245-1+0t22-4+0t17-6+0t16-7+0t17-10+0t16-5+0t17-8+0t17-7+0t17-3+0t16-8+0t17-3+0t16-2+1t17-3+0t17+0+0t17-1+0t16+0+0t17+0+0t214+0+0t8+1+0t11+2+1t17+5+2t17+8+4t16+4+2t17+24+12t17+22+9t16+29+12t17+44+19t17+22+9t16+28+10t17+15+6t17+10+3t16+10+3t17+5+2t17+4+1t16+4+1t17+6+2t16+6+3t17+8+2t17+8+3t17+5+2t17+7+2t16+4+1t16+5+2t17+3+1t17+2+1t16+2+1t17+1+0t17+1+1t16+0+0t17+1+0t17+0+0t33+0+1,1743674098432,How often do you read (even only partially) the privacy policy of a website before accepting it?,experiment,NULL
1743676119,0454064b334d09c79cc2a0c1b9f157ac,PennController,19,0,experiment,NULL,Scale,response,Choice,Never,1743674106062,How often do you read (even only partially) the privacy policy of a website before accepting it?,experiment,NULL
1743676119,0454064b334d09c79cc2a0c1b9f157ac,PennController,19,0,experiment,NULL,PennController,22,_Trial_,End,1743674106829,How often do you read (even only partially) the privacy policy of a website before accepting it?,experiment,NULL
1743676119,0454064b334d09c79cc2a0c1b9f157ac,PennController,20,0,experiment,NULL,PennController,23,_Trial_,Start,1743674106830,How often do you watch tutorial videos or read guides to learn how to use new apps or digital tools?,filler,NULL
1743676119,0454064b334d09c79cc2a0c1b9f157ac,PennController,20,0,experiment,NULL,MouseTracker,mouse,Click,387:458,1743674106834,How often do you watch tutorial videos or read guides to learn how to use new apps or digital tools?,filler,NULL
1743676119,0454064b334d09c79cc2a0c1b9f157ac,PennController,20,0,experiment,NULL,MouseTracker,mouse,Click,389:345,1743674114645,How often do you watch tutorial videos or read guides to learn how to use new apps or digital tools?,filler,NULL
1743676119,0454064b334d09c79cc2a0c1b9f157ac,PennController,20,0,experiment,NULL,MouseTracker,mouse,Move,x387y458w778h689t6617-2+0t16-4+0t17-11+1t18-11+1t16-17+0t16-26-5t18-25-8t16-15-5t16-9-3t17-8-4t16-8-3t17-2-1t192+0+0t12+0-6t13+1-5t16+4-9t17+3-9t17+3-5t17+1-4t16+3-6t17+1-3t17+1-1t16+0-1t17+0-1t17+0-2t16+0-4t17+0-3t16+2-4t17+2-5t17+5-4t16+8-4t17+14-4t17+18-3t16+14-1t17+19-1t17+23+0t16+2+0t17+7+0t16+6-1t17+1+0t17+0+0t17+1-1t33+0+0t50+0+0t51+0+0t26+0+0t40+1+0t16+0+1t379+0+0t21+0+5t17+0+8t17+0+12t17+0+22t16+0+14t17+0+15t16+1+8t17+0+7t17+1+4t16+0+1t17+0+0t17+0+1t257+0+0t9+0+0t48+0+0,1743674106831,How often do you watch tutorial videos or read guides to learn how to use new apps or digital tools?,filler,NULL
1743676119,0454064b334d09c79cc2a0c1b9f157ac,PennController,20,0,experiment,NULL,Scale,response,Choice,Sometimes,1743674114645,How often do you watch tutorial videos or read guides to learn how to use new apps or digital tools?,filler,NULL
1743676119,0454064b334d09c79cc2a0c1b9f157ac,PennController,20,0,experiment,NULL,PennController,23,_Trial_,End,1743674115496,How often do you watch tutorial videos or read guides to learn how to use new apps or digital tools?,filler,NULL
1743676119,0454064b334d09c79cc2a0c1b9f157ac,PennController,21,0,experiment,NULL,PennController,24,_Trial_,Start,1743674115497,How often do you deploy 2-factor authentication (2FA)?,experiment,NULL
1743676119,0454064b334d09c79cc2a0c1b9f157ac,PennController,21,0,experiment,NULL,MouseTracker,mouse,Click,391:442,1743674115501,How often do you deploy 2-factor authentication (2FA)?,experiment,NULL
1743676119,0454064b334d09c79cc2a0c1b9f157ac,PennController,21,0,experiment,NULL,MouseTracker,mouse,Click,655:347,1743674118494,How often do you deploy 2-factor authentication (2FA)?,experiment,NULL
1743676119,0454064b334d09c79cc2a0c1b9f157ac,PennController,21,0,experiment,NULL,MouseTracker,mouse,Move,x391y442w778h689t2214+2+0t19+10-6t17+12-6t17+20-8t16+29-10t17+43-10t16+30-5t17+39-5t17+34-3t16+28-1t17+15+0t17+9+0t16+7+0t17+3+0t17+1+0t17+1+0t17+0+0t30+0+0t17+0+0t8+0-1t11+0+0t16+0-1t17+0-3t17-2-4t17-2-3t17-2-4t16-2-3t17-1-2t16-1-2t17-1-1t17-1-1t16+0-2t17-1-3t17+0-1t16-1-2t17-1-2t16-1-1t17-1-2t17-1-1t16-1-1t17+0-1t17+0+0t32+0+0t177-1+0t8-1+0t16-4+3t17-6+4t16-12+8t17-14+7t17-9+5t17-17+8t16-20+8t17-18+9t16-21+8t17-15+5t17-17+7t17-13+5t16-12+4t17-7+1t17-7+1t16-5+0t17-5+0t16-3+0t17-3+0t17-3-1t17-2-1t16-2+0t17-4+0t16-2+0t17-5+0t17-5+2t16-7+5t17-7+5t16-3+3t17-4+2t17-2+1t17-1+1t17-1+0,1743674115498,How often do you deploy 2-factor authentication (2FA)?,experiment,NULL
1743676119,0454064b334d09c79cc2a0c1b9f157ac,PennController,21,0,experiment,NULL,Scale,response,Choice,Really often,1743674118494,How often do you deploy 2-factor authentication (2FA)?,experiment,NULL
1743676119,0454064b334d09c79cc2a0c1b9f157ac,PennController,21,0,experiment,NULL,PennController,24,_Trial_,End,1743674119279,How often do you deploy 2-factor authentication (2FA)?,experiment,NULL
# 13. Comments.
1743676119,0454064b334d09c79cc2a0c1b9f157ac,PennController,22,0,manipulation-check-start,NULL,PennController,5,_Trial_,Start,1743674119281,NULL
1743676119,0454064b334d09c79cc2a0c1b9f157ac,PennController,22,0,manipulation-check-start,NULL,PennController,5,_Trial_,End,1743674124677,NULL
1743676119,0454064b334d09c79cc2a0c1b9f157ac,PennController,23,0,manipulation-check,NULL,PennController,6,_Trial_,Start,1743674124677,NULL
1743676119,0454064b334d09c79cc2a0c1b9f157ac,PennController,23,0,manipulation-check,NULL,Scale,response,Choice,Disagree,1743674134444,NULL
1743676119,0454064b334d09c79cc2a0c1b9f157ac,PennController,23,0,manipulation-check,NULL,PennController,6,_Trial_,End,1743674135278,NULL
1743676119,0454064b334d09c79cc2a0c1b9f157ac,PennController,24,0,sd-bias-start,NULL,PennController,7,_Trial_,Start,1743674135279,NULL
1743676119,0454064b334d09c79cc2a0c1b9f157ac,PennController,24,0,sd-bias-start,NULL,PennController,7,_Trial_,End,1743674147245,NULL
1743676119,0454064b334d09c79cc2a0c1b9f157ac,PennController,25,0,sd-bias,NULL,PennController,25,_Trial_,Start,1743674147246,NULL
1743676119,0454064b334d09c79cc2a0c1b9f157ac,PennController,25,0,sd-bias,NULL,Scale,response,Choice,True,1743674162011,NULL
1743676119,0454064b334d09c79cc2a0c1b9f157ac,PennController,25,0,sd-bias,NULL,PennController,25,_Trial_,End,1743674162712,NULL
1743676119,0454064b334d09c79cc2a0c1b9f157ac,PennController,26,0,sd-bias,NULL,PennController,26,_Trial_,Start,1743674162713,NULL
1743676119,0454064b334d09c79cc2a0c1b9f157ac,PennController,26,0,sd-bias,NULL,Scale,response,Choice,False,1743674181111,NULL
1743676119,0454064b334d09c79cc2a0c1b9f157ac,PennController,26,0,sd-bias,NULL,PennController,26,_Trial_,End,1743674182779,NULL
1743676119,0454064b334d09c79cc2a0c1b9f157ac,PennController,27,0,sd-bias,NULL,PennController,27,_Trial_,Start,1743674182780,NULL
1743676119,0454064b334d09c79cc2a0c1b9f157ac,PennController,27,0,sd-bias,NULL,Scale,response,Choice,False,1743674191013,NULL
1743676119,0454064b334d09c79cc2a0c1b9f157ac,PennController,27,0,sd-bias,NULL,PennController,27,_Trial_,End,1743674192279,NULL
1743676119,0454064b334d09c79cc2a0c1b9f157ac,PennController,28,0,sd-bias,NULL,PennController,28,_Trial_,Start,1743674192280,NULL
1743676119,0454064b334d09c79cc2a0c1b9f157ac,PennController,28,0,sd-bias,NULL,Scale,response,Choice,False,1743674199328,NULL
1743676119,0454064b334d09c79cc2a0c1b9f157ac,PennController,28,0,sd-bias,NULL,PennController,28,_Trial_,End,1743674199945,NULL
1743676119,0454064b334d09c79cc2a0c1b9f157ac,PennController,29,0,sd-bias,NULL,PennController,29,_Trial_,Start,1743674199946,NULL
1743676119,0454064b334d09c79cc2a0c1b9f157ac,PennController,29,0,sd-bias,NULL,Scale,response,Choice,True,1743674205210,NULL
1743676119,0454064b334d09c79cc2a0c1b9f157ac,PennController,29,0,sd-bias,NULL,PennController,29,_Trial_,End,1743674205845,NULL
1743676119,0454064b334d09c79cc2a0c1b9f157ac,PennController,30,0,sd-bias,NULL,PennController,30,_Trial_,Start,1743674205847,NULL
1743676119,0454064b334d09c79cc2a0c1b9f157ac,PennController,30,0,sd-bias,NULL,Scale,response,Choice,False,1743674209577,NULL
1743676119,0454064b334d09c79cc2a0c1b9f157ac,PennController,30,0,sd-bias,NULL,PennController,30,_Trial_,End,1743674210162,NULL
1743676119,0454064b334d09c79cc2a0c1b9f157ac,PennController,31,0,sd-bias,NULL,PennController,31,_Trial_,Start,1743674210163,NULL
1743676119,0454064b334d09c79cc2a0c1b9f157ac,PennController,31,0,sd-bias,NULL,Scale,response,Choice,False,1743676042215,NULL
1743676119,0454064b334d09c79cc2a0c1b9f157ac,PennController,31,0,sd-bias,NULL,PennController,31,_Trial_,End,1743676043047,NULL
1743676119,0454064b334d09c79cc2a0c1b9f157ac,PennController,32,0,sd-bias,NULL,PennController,32,_Trial_,Start,1743676043048,NULL
1743676119,0454064b334d09c79cc2a0c1b9f157ac,PennController,32,0,sd-bias,NULL,Scale,response,Choice,False,1743676051663,NULL
1743676119,0454064b334d09c79cc2a0c1b9f157ac,PennController,32,0,sd-bias,NULL,PennController,32,_Trial_,End,1743676052363,NULL
1743676119,0454064b334d09c79cc2a0c1b9f157ac,PennController,33,0,sd-bias,NULL,PennController,33,_Trial_,Start,1743676052364,NULL
1743676119,0454064b334d09c79cc2a0c1b9f157ac,PennController,33,0,sd-bias,NULL,Scale,response,Choice,True,1743676073646,NULL
1743676119,0454064b334d09c79cc2a0c1b9f157ac,PennController,33,0,sd-bias,NULL,PennController,33,_Trial_,End,1743676074863,NULL
1743676119,0454064b334d09c79cc2a0c1b9f157ac,PennController,34,0,sd-bias,NULL,PennController,34,_Trial_,Start,1743676074864,NULL
1743676119,0454064b334d09c79cc2a0c1b9f157ac,PennController,34,0,sd-bias,NULL,Scale,response,Choice,False,1743676085845,NULL
1743676119,0454064b334d09c79cc2a0c1b9f157ac,PennController,34,0,sd-bias,NULL,PennController,34,_Trial_,End,1743676086880,NULL
1743676119,0454064b334d09c79cc2a0c1b9f157ac,PennController,35,0,sd-bias,NULL,PennController,35,_Trial_,Start,1743676086881,NULL
1743676119,0454064b334d09c79cc2a0c1b9f157ac,PennController,35,0,sd-bias,NULL,Scale,response,Choice,False,1743676091546,NULL
1743676119,0454064b334d09c79cc2a0c1b9f157ac,PennController,35,0,sd-bias,NULL,PennController,35,_Trial_,End,1743676092246,NULL
1743676119,0454064b334d09c79cc2a0c1b9f157ac,PennController,36,0,sd-bias,NULL,PennController,36,_Trial_,Start,1743676092247,NULL
1743676119,0454064b334d09c79cc2a0c1b9f157ac,PennController,36,0,sd-bias,NULL,Scale,response,Choice,False,1743676108962,NULL
1743676119,0454064b334d09c79cc2a0c1b9f157ac,PennController,36,0,sd-bias,NULL,PennController,36,_Trial_,End,1743676109645,NULL
1743676119,0454064b334d09c79cc2a0c1b9f157ac,PennController,37,0,sd-bias,NULL,PennController,37,_Trial_,Start,1743676109646,NULL
1743676119,0454064b334d09c79cc2a0c1b9f157ac,PennController,37,0,sd-bias,NULL,Scale,response,Choice,True,1743676115513,NULL
1743676119,0454064b334d09c79cc2a0c1b9f157ac,PennController,37,0,sd-bias,NULL,PennController,37,_Trial_,End,1743676117113,NULL
#
# Results on Thu, 03 Apr 2025 10:37:24 GMT
# USER AGENT: Mozilla/5.0 (Windows NT 10.0; Win64; x64; rv:136.0) Gecko/20100101 Firefox/136.0
# Design number was non-random = 3
#
# Columns below this comment are as follows:
# 1. Results reception time.
# 2. MD5 hash of participant's IP address.
# 3. Controller name.
# 4. Order number of item.
# 5. Inner element number.
# 6. Label.
# 7. Latin Square Group.
# 8. PennElementType.
# 9. PennElementName.
# 10. Parameter.
# 11. Value.
# 12. EventTime.
# 13. Comments.
1743676644,fab1e5282cc269a79861cd41df552374,PennController,1,0,intro,NULL,PennController,0,_Trial_,Start,1743676354820,NULL
1743676644,fab1e5282cc269a79861cd41df552374,PennController,1,0,intro,NULL,PennController,0,_Trial_,End,1743676377723,NULL
1743676644,fab1e5282cc269a79861cd41df552374,PennController,2,0,consent-high-sd,NULL,PennController,1,_Trial_,Start,1743676377725,NULL
1743676644,fab1e5282cc269a79861cd41df552374,PennController,2,0,consent-high-sd,NULL,PennController,1,_Trial_,End,1743676381627,NULL
# 13. age.
# 14. gender.
# 15. occupation.
# 16. nationality.
# 17. Comments.
1743676644,fab1e5282cc269a79861cd41df552374,PennController,3,0,personal-info,NULL,PennController,2,_Trial_,Start,1743676381628,22,Male,Full time student,Dutch,NULL
1743676644,fab1e5282cc269a79861cd41df552374,PennController,3,0,personal-info,NULL,PennController,2,_Trial_,End,1743676418094,22,Male,Full time student,Dutch,NULL
# 13. Comments.
1743676644,fab1e5282cc269a79861cd41df552374,PennController,4,0,trial-start,NULL,PennController,3,_Trial_,Start,1743676418096,NULL
1743676644,fab1e5282cc269a79861cd41df552374,PennController,4,0,trial-start,NULL,PennController,3,_Trial_,End,1743676423363,NULL
1743676644,fab1e5282cc269a79861cd41df552374,PennController,5,0,trial,NULL,PennController,9,_Trial_,Start,1743676423369,NULL
1743676644,fab1e5282cc269a79861cd41df552374,PennController,5,0,trial,NULL,PennController,9,_Trial_,End,1743676430785,NULL
1743676644,fab1e5282cc269a79861cd41df552374,PennController,6,0,trial,NULL,PennController,10,_Trial_,Start,1743676430791,NULL
1743676644,fab1e5282cc269a79861cd41df552374,PennController,6,0,trial,NULL,PennController,10,_Trial_,End,1743676435455,NULL
1743676644,fab1e5282cc269a79861cd41df552374,PennController,7,0,trial,NULL,PennController,11,_Trial_,Start,1743676435456,NULL
1743676644,fab1e5282cc269a79861cd41df552374,PennController,7,0,trial,NULL,PennController,11,_Trial_,End,1743676441306,NULL
1743676644,fab1e5282cc269a79861cd41df552374,PennController,8,0,experiment-start-high-sd,NULL,PennController,4,_Trial_,Start,1743676441308,NULL
1743676644,fab1e5282cc269a79861cd41df552374,PennController,8,0,experiment-start-high-sd,NULL,PennController,4,_Trial_,End,1743676450495,NULL
# 13. question.
# 14. type.
# 15. Comments.
1743676644,fab1e5282cc269a79861cd41df552374,PennController,9,0,experiment,NULL,PennController,12,_Trial_,Start,1743676450496,How often do you share personal and sensitive information with chatbots (e.g. sexual orientation%2C healthcare data)?,experiment,NULL
1743676644,fab1e5282cc269a79861cd41df552374,PennController,9,0,experiment,NULL,MouseTracker,mouse,Move,x751y483w1536h731t2570+0-1t5-1-4t8+0-4t14-6-14t17-6-11t17-8-10t17-7-8t16-5-3t17-6-4t16-10-7t17-6-4t17-15-7t17-7-4t16-10-6t17-6-2t17-6-4t16-7-3t17-6-2t17-5-3t17-7-4t15-4-5t18-8-12t17-4-7t16-8-10t17-8-6t16-6-4t17-8-2t17-4+0t16-3-1t19-6-1t14-6+0t17-16+0t17-8+0t16-7+0t17-5+0t17-3+0t16-5-1t17-4-1t17-6-2t16-4-1t18-3+0t15-1+0t17-2+0t17+0+0t22-1+1t14-1+0t29-1+0t21+0+1t6+0+1t13-1+0t13+0+0t15-1+1t17-1+0t16-1+0t18-1+0t19+0+0t177-1+0t765+13+9t7+22+13t14+30+15t17+21+10t17+23+11t16+29+12t17+18+4t17+19+5t16+8+1t17+5+1t16+5+1t17+4+1t17+3+1t17+1+1t16+3+0t17+5+3t17+5+1t16+5+1t17+5+2t17+1+1t17+0+0t16+1+0t31+1+0t14+1+0t7+1+0t15+1+1t17+1+1t16+2+1t17+3+1t16+1+0t17+5+1t17+5+1t16+4+0t17+5+1t17+1+0t17+1+0t16+1+0t16+1+0,1743676450501,How often do you share personal and sensitive information with chatbots (e.g. sexual orientation%2C healthcare data)?,experiment,NULL
1743676644,fab1e5282cc269a79861cd41df552374,PennController,9,0,experiment,NULL,MouseTracker,mouse,Click,751:483,1743676450507,How often do you share personal and sensitive information with chatbots (e.g. sexual orientation%2C healthcare data)?,experiment,NULL
1743676644,fab1e5282cc269a79861cd41df552374,PennController,9,0,experiment,NULL,MouseTracker,mouse,Click,489:329,1743676454486,How often do you share personal and sensitive information with chatbots (e.g. sexual orientation%2C healthcare data)?,experiment,NULL
1743676644,fab1e5282cc269a79861cd41df552374,PennController,9,0,experiment,NULL,Scale,response,Choice,Never,1743676454486,How often do you share personal and sensitive information with chatbots (e.g. sexual orientation%2C healthcare data)?,experiment,NULL
1743676644,fab1e5282cc269a79861cd41df552374,PennController,9,0,experiment,NULL,PennController,12,_Trial_,End,1743676455988,How often do you share personal and sensitive information with chatbots (e.g. sexual orientation%2C healthcare data)?,experiment,NULL
1743676644,fab1e5282cc269a79861cd41df552374,PennController,10,0,experiment,NULL,PennController,13,_Trial_,Start,1743676455989,How often do you ask chatbots for advice in topics related to your personal life (e.g. relationships%2C emotions%2C feelings)?,experiment,NULL
1743676644,fab1e5282cc269a79861cd41df552374,PennController,10,0,experiment,NULL,MouseTracker,mouse,Move,x749y429w1536h731t703-1-2t11-5-5t3-5-8t7-8-8t16-16-16t17-15-15t16-18-13t20-11-8t14-6-5t16-2-1t17-2-2t16-2+0t18+0+0t17-2-1t16-2-2t16+0+0t17-2+0t17+0-1t20-1+0t13-1+0t17+0+0t31-1+0t13-1+0t292+0+1t29+0+1t20+0+1t63+0+1t84+0+0t119+0+1t62+0+1t71+0+1t388-10+1t6-16+0t8-10+0t14-26+0t16-20+0t17-18-1t17-22-2t16-6-1t17-4-1t17-7-3t16-4+0t17-10-3t17-5-1t17-5-2t16-4-2t16-2+0t18-1+0t16-1+0t17+0-1t16-1+0t17-1-1t17+0-1t16-1+0t101+1+0t16+1+0t27+1+0t14+1+0t21+0+0t14+1+0t7+1+0t48+1+0t699+17+8t7+20+7t13+24+12t16+72+32t17+40+24t17+56+27t17+17+6t17+7+3t16+4+1t17+2+0t86+0-1t21-1+0t9-1+0t19+0-1t35+0-1t62+1+0t7+1+0t14+2+0t7+1+0t7+2+0t15+3+0t18+2+0t16+3-1t21+1+0t22+0-1,1743676455991,How often do you ask chatbots for advice in topics related to your personal life (e.g. relationships%2C emotions%2C feelings)?,experiment,NULL
1743676644,fab1e5282cc269a79861cd41df552374,PennController,10,0,experiment,NULL,MouseTracker,mouse,Click,749:429,1743676455994,How often do you ask chatbots for advice in topics related to your personal life (e.g. relationships%2C emotions%2C feelings)?,experiment,NULL
1743676644,fab1e5282cc269a79861cd41df552374,PennController,10,0,experiment,NULL,MouseTracker,mouse,Click,481:331,1743676459206,How often do you ask chatbots for advice in topics related to your personal life (e.g. relationships%2C emotions%2C feelings)?,experiment,NULL
1743676644,fab1e5282cc269a79861cd41df552374,PennController,10,0,experiment,NULL,Scale,response,Choice,Never,1743676459207,How often do you ask chatbots for advice in topics related to your personal life (e.g. relationships%2C emotions%2C feelings)?,experiment,NULL
1743676644,fab1e5282cc269a79861cd41df552374,PennController,10,0,experiment,NULL,PennController,13,_Trial_,End,1743676460381,How often do you ask chatbots for advice in topics related to your personal life (e.g. relationships%2C emotions%2C feelings)?,experiment,NULL
1743676644,fab1e5282cc269a79861cd41df552374,PennController,11,0,experiment,NULL,PennController,14,_Trial_,Start,1743676460383,How often do you see news or articles about artificial intelligence in your daily life (e.g.%2C on social media%2C news websites%2C or TV)?,filler,NULL
1743676644,fab1e5282cc269a79861cd41df552374,PennController,11,0,experiment,NULL,MouseTracker,mouse,Move,x754y446w1536h731t567-7-2t7-11-5t7-12-5t13-9-4t16-31-8t17-15-3t17-13-3t16-6-2t18-9+0t16-10-2t16-7-2t17-4-2t17-5-2t17-1-1t16-4-2t16-1-1t17-2+0t17-1-1t17-2-1t16-3-2t17-4-1t17-3-2t17-4-1t16-2-2t16-2-1t18-2-1t16-1-1t17-1-1t16-1+0t17-1+0t16-1-2t1707+3+0t6+4+0t7+7+1t14+17+3t16+20+1t17+20+3t17+16+0t16+9+0t17+12+0t17+12+0t17+5+0t17+10-1t15+10-1t17+11-2t17+13-1t17+6-1t16+24-2t17+16-4t16+8-2t18+23-5t16+16-1t16+16-4t18+6-2t16+9-2t17+12-3t17+4-2t16+4-2t17+1-1t18+0+0t15+1-1t16+0-1t18+0-1t16+1-1t17+1-1t16+1-1t17+3-3t17+2-4t17+6-3t17+3-3t15+9-3t17+12-1t17+22+0t17+44+0t17+15+0t16+9+0t16+5+1t18+2+0t17+1+0t16+0+0t185+0-1t48+0-1t7+1+0t21+1+0t6+0+0t36+0-1t942-12+9t5-17+12t17-35+24t15-30+20t17-45+24t17-19+6t16-16+6t17-11+3t18-7+1t16-2+0t17-1+0t16-1+0t17-1+0t17-1+0t16-1+0t17-4-1t16-2-1t17-3-1t17-1+0t17-1+0t17-2-1t16-4+0t16-10+0t17-8+3t17-7+2t17-5+3t17-3+1t16-1+1t17-3+2t17-2+0t15-3+1t17-5+1t17-4-2,1743676460387,How often do you see news or articles about artificial intelligence in your daily life (e.g.%2C on social media%2C news websites%2C or TV)?,filler,NULL
1743676644,fab1e5282cc269a79861cd41df552374,PennController,11,0,experiment,NULL,MouseTracker,mouse,Click,754:446,1743676460393,How often do you see news or articles about artificial intelligence in your daily life (e.g.%2C on social media%2C news websites%2C or TV)?,filler,NULL
1743676644,fab1e5282cc269a79861cd41df552374,PennController,11,0,experiment,NULL,MouseTracker,mouse,Click,1032:333,1743676464788,How often do you see news or articles about artificial intelligence in your daily life (e.g.%2C on social media%2C news websites%2C or TV)?,filler,NULL
1743676644,fab1e5282cc269a79861cd41df552374,PennController,11,0,experiment,NULL,Scale,response,Choice,Really often,1743676464788,How often do you see news or articles about artificial intelligence in your daily life (e.g.%2C on social media%2C news websites%2C or TV)?,filler,NULL
1743676644,fab1e5282cc269a79861cd41df552374,PennController,11,0,experiment,NULL,PennController,14,_Trial_,End,1743676466069,How often do you see news or articles about artificial intelligence in your daily life (e.g.%2C on social media%2C news websites%2C or TV)?,filler,NULL
1743676644,fab1e5282cc269a79861cd41df552374,PennController,12,0,experiment,NULL,PennController,15,_Trial_,Start,1743676466071,How often do you chat with chatbots even if you don't need anything from them (e.g. just to chat)?,experiment,NULL
1743676644,fab1e5282cc269a79861cd41df552374,PennController,12,0,experiment,NULL,MouseTracker,mouse,Move,x765y446w1536h731t3504-15-1t5-13-2t7-14-2t8-11-1t16-21-2t16-22-6t17-25-5t17-15-3t17-14-2t17-21-5t15-15-2t18-17-3t16-15-3t17-9-2t16-9-3t18-7-2t16-10-4t17-8-4t16-9-4t17-4-2t17-3-2t16-2+0t20+0-1t14-1-1t35+0-2t8-1-4t7-3-8t17-16-36t16-11-20t16-3-8t18+0-1t16+0-2t84+0+1t13+1+0t21+1+0t8+1+0t7+0+1t17+0+0t17+1+1t16+3+2t17+4+3t17+4+7t16+3+4t18+1+4t16+3+6t16+1+4t17+3+6t16+1+4t17+1+3t17+1+2t17+1+1t18+1+0t15+0+0t39+1+0t71+0-1t13+0-1t6+0+0t8+0-1t28+0-1t14+0-2t21+0+0t6+0-1t14+0-1t13+0-1t16+0-1t18+0-2t16+0-1t16+0-1t18+0+0t16+0-1t744+14+5t7+17+8t16+32+12t17+43+16t16+45+14t17+23+8t16+15+3t17+31+4t17+17+0t16+14+2t17+17+4t17+7+1t17+9+3t16+4+2t16+2+0t17+1+1t17+0+0t31+1+0t6+1+1t13+1+1t17+4+1t16+1+1t17+1+1t16+1+1t18+0+0t16+0+2t16+0+2t17+0+0t17+0+3t16+0+1,1743676466073,How often do you chat with chatbots even if you don't need anything from them (e.g. just to chat)?,experiment,NULL
1743676644,fab1e5282cc269a79861cd41df552374,PennController,12,0,experiment,NULL,MouseTracker,mouse,Click,765:446,1743676466075,How often do you chat with chatbots even if you don't need anything from them (e.g. just to chat)?,experiment,NULL
1743676644,fab1e5282cc269a79861cd41df552374,PennController,12,0,experiment,NULL,MouseTracker,mouse,Click,483:337,1743676471228,How often do you chat with chatbots even if you don't need anything from them (e.g. just to chat)?,experiment,NULL
1743676644,fab1e5282cc269a79861cd41df552374,PennController,12,0,experiment,NULL,Scale,response,Choice,Never,1743676471228,How often do you chat with chatbots even if you don't need anything from them (e.g. just to chat)?,experiment,NULL
1743676644,fab1e5282cc269a79861cd41df552374,PennController,12,0,experiment,NULL,PennController,15,_Trial_,End,1743676472455,How often do you chat with chatbots even if you don't need anything from them (e.g. just to chat)?,experiment,NULL
1743676644,fab1e5282cc269a79861cd41df552374,PennController,13,0,experiment,NULL,PennController,16,_Trial_,Start,1743676472456,How often do you rely on the answers of chatbots without checking them?,experiment,NULL
1743676644,fab1e5282cc269a79861cd41df552374,PennController,13,0,experiment,NULL,MouseTracker,mouse,Move,x784y434w1536h731t3309-2+0t6-4+0t7-1-1t14-11-3t18-7-1t15-6-1t17-7-1t17-2+0t17-2+0t28-2+0t27-1+0t28-1+0t15+0+0t14+0-1t6-1+0t16-1+0t19-1+0t15-1+0t15+0+0t40+0-1t14+0+0t7+1+0t7+1-1t15+3-1t17+6-1t17+10-2t16+9-2t18+13-2t15+10+0t17+2+0t17+1+0t35+0+0t15-1+0t5-2+0t12-2+0t17-9+0t16-67-20t16-42-15t17-51-13t17-34-6t17-21-4t17-34-4t16-18-2t17-14-1t16-14-1t17-9-2t17-8-2t17-4-3t16-2-1t16-1-2t17-1-1t17-2-2t17-2-3t16-2-3t17-2-1t17-1-1t17+0-1t55+1+0t14+1+0t14+1+0t15+1+0t6+1+0t12+2+0t17+6+0t16+5+1t17+6+1t17+10+3t16+4+1t18+3+2t16+1+0t16+1+0t79+0+0t132+0+1t21+0+1t13+0+0t22-1+0t21-1+0t21-2+0t21+0+0t7-1+0t29-1+0t13-1+0t28-1+0t42+0+0t69+0-1t572+1+0t6+2+0t8+1+0t13+0+0t17+2-1t16+2+0t17+1+0t17+4+0t17+4+0t16+5+0t16+3+1t18+9+1t16+3+0t17+4+1t16+7+1t17+4+0t17+5+1t16+5+0t17+4+1t17+3+0t16+1+1t17+1+0t17+1+0t16+1+0t45+1+0t14+1+0t34+1+0t14+0+0t50+1+0t19+1+0t22+1+0t35+1+0t14+1+0t21+1+0t6+1+0t10+1+0t16+3+0t17+6+0t17+6+0t16+5-1t17+8+0t16+4-1t17+4-1t17+2+0t16+2+0t17+3-2t17+1+0t16+1+0t29+1+0t13+1+0t22+1+0t216+0-1t1199+0+1t6+1+2t8+3+6t7+1+4t17+6+11t17+8+12t16+11+14t17+6+6t17+6+4t16+8+6t17+5+3t17+7+7t16+6+2t16+8+5t18+4+2t17+3+0t16+4+0t17+1+1t16+3+0t16+2+1t18+4+1t16+8+2t17+6+1t17+5+2t16+8+2t17+4+2t16+5+3t17+2+0t16+1+1t18+1+0t16+1+0t16+1+0t18+1+1t17+0+1t16+1+1,1743676472459,How often do you rely on the answers of chatbots without checking them?,experiment,NULL
1743676644,fab1e5282cc269a79861cd41df552374,PennController,13,0,experiment,NULL,MouseTracker,mouse,Click,784:434,1743676472461,How often do you rely on the answers of chatbots without checking them?,experiment,NULL
1743676644,fab1e5282cc269a79861cd41df552374,PennController,13,0,experiment,NULL,MouseTracker,mouse,Click,614:337,1743676479699,How often do you rely on the answers of chatbots without checking them?,experiment,NULL
1743676644,fab1e5282cc269a79861cd41df552374,PennController,13,0,experiment,NULL,Scale,response,Choice,Few times,1743676479699,How often do you rely on the answers of chatbots without checking them?,experiment,NULL
1743676644,fab1e5282cc269a79861cd41df552374,PennController,13,0,experiment,NULL,PennController,16,_Trial_,End,1743676481501,How often do you rely on the answers of chatbots without checking them?,experiment,NULL
1743676644,fab1e5282cc269a79861cd41df552374,PennController,14,0,experiment,NULL,PennController,17,_Trial_,Start,1743676481501,How often do you receive suspicious emails or messages that might be phishing attempts?,filler,NULL
1743676644,fab1e5282cc269a79861cd41df552374,PennController,14,0,experiment,NULL,MouseTracker,mouse,Move,x755y441w1536h731t2537-1+0t7-1+0t6-3+0t7-1+0t15-6+0t17-2+0t17-4+0t17-3+0t18+0+0t15-1+0t16-1+0t17-1+0t17-1+0t40+0+0t237-1+0t28+0-1t14-1+0t14+0-1t14-1-1t7-1+0t13-1+0t16-4-4t17-7-4t16-10-9t17-6-6t17-5-5t17-9-8t17-5-3t15-4-3t17-5-4t17-4-2t17-3-3t17-1-1t16-2-2t17-2-2t17-1-1t16-2-2t17-1-1t17-2-4t16-3-4t17-3-1t17-3-2t17-5-4t16-4-1t16-5-4t17-3-3t17-1-1t17-2-1t18-1+0t15+0-1t20+0-1t28-1+0t20-1+0t29+0-1t6-1+0t14+0+0t35-1+0t14+0-1t28+0-1t14+0-1t7+0+0t43+0-1t13+0+0t7-1+0t15+0-1t6+0-1t18+0-1t16-1-1t17+0+0t17+0-1t16+0-1t17+0-1t87+0-1t35+0+0t77+0-1t194+1+0t787+2+1t5+3+2t7+9+4t7+11+8t17+23+14t17+25+21t17+19+15t16+12+7t17+14+9t17+4+3t17+3+2t16+1+2t19+1+0t22+1+1t9+1+0t17+0+0t16+1+1t17+1+0t17+2+1t16+0+1t17+1+0t23+1+1t21+0+0t6+1+0,1743676481505,How often do you receive suspicious emails or messages that might be phishing attempts?,filler,NULL
1743676644,fab1e5282cc269a79861cd41df552374,PennController,14,0,experiment,NULL,MouseTracker,mouse,Click,755:441,1743676481508,How often do you receive suspicious emails or messages that might be phishing attempts?,filler,NULL
1743676644,fab1e5282cc269a79861cd41df552374,PennController,14,0,experiment,NULL,MouseTracker,mouse,Click,617:337,1743676486337,How often do you receive suspicious emails or messages that might be phishing attempts?,filler,NULL
1743676644,fab1e5282cc269a79861cd41df552374,PennController,14,0,experiment,NULL,Scale,response,Choice,Few times,1743676486337,How often do you receive suspicious emails or messages that might be phishing attempts?,filler,NULL
1743676644,fab1e5282cc269a79861cd41df552374,PennController,14,0,experiment,NULL,PennController,17,_Trial_,End,1743676487580,How often do you receive suspicious emails or messages that might be phishing attempts?,filler,NULL
1743676644,fab1e5282cc269a79861cd41df552374,PennController,15,0,experiment,NULL,PennController,18,_Trial_,Start,1743676487587,How often do you send and receive messages or emails?,control,NULL
1743676644,fab1e5282cc269a79861cd41df552374,PennController,15,0,experiment,NULL,MouseTracker,mouse,Move,x753y430w1536h731t5079+1+0t5+2+0t6+6+0t8+6+0t17+17-1t17+13-3t16+21-5t17+15-6t17+10-4t16+6-2t17+7-3t16+6-4t17+4-3t17+5-4t16+5-5t17+7-5t17+6-8t17+2-5t17+3-2t16+2-4t17+1-4t16+2-2t17+0-2t17+1-1t16+0-3t17+0-2t16+0-1t18+0-1t18+0+0t15-1-2t20-1+0t35+0-1t7-1-1t13+0+0t49+0-1t21+0-1t14+0-1t14+0-1t14+0+0t20+0-1t8+0-1t13+0+0t22+0-1t783-1+1t7-2+2t10-3+1t17-8+7t16-21+13t16-17+11t17-15+12t17-21+13t17-10+10t16-11+9t17-9+7t16-3+1t17-3+2t17-1+2t16-3+0t17-1+1t17-1+2t17-3+3t16-3+4t16-3+2t18-1+2t16+0+1t17-1+1t16+0+0,1743676487595,How often do you send and receive messages or emails?,control,NULL
1743676644,fab1e5282cc269a79861cd41df552374,PennController,15,0,experiment,NULL,MouseTracker,mouse,Click,753:430,1743676487600,How often do you send and receive messages or emails?,control,NULL
1743676644,fab1e5282cc269a79861cd41df552374,PennController,15,0,experiment,NULL,MouseTracker,mouse,Click,898:339,1743676493877,How often do you send and receive messages or emails?,control,NULL
1743676644,fab1e5282cc269a79861cd41df552374,PennController,15,0,experiment,NULL,Scale,response,Choice,Often,1743676493877,How often do you send and receive messages or emails?,control,NULL
1743676644,fab1e5282cc269a79861cd41df552374,PennController,15,0,experiment,NULL,PennController,18,_Trial_,End,1743676494949,How often do you send and receive messages or emails?,control,NULL
1743676644,fab1e5282cc269a79861cd41df552374,PennController,16,0,experiment,NULL,PennController,19,_Trial_,Start,1743676494956,When you have to create a password for a new account%2C how often do you use strong passwords (different from any other password you used in the past%2C with many special characters and really long)?,experiment,NULL
1743676644,fab1e5282cc269a79861cd41df552374,PennController,16,0,experiment,NULL,MouseTracker,mouse,Move,x757y446w1536h731t6549-7-1t6-9-3t10-10-4t16-17-6t17-18-8t16-28-15t17-16-10t17-21-13t17-7-8t16-11-14t16-4-6t18-2-5t16-1-3t17+0-1t16+0-2t35+1-1t13+0+0t8+1+0t11+0-1t17+2-2t16+1-2t17+2-3t17+1-1t17+0-1t16+0-1t17+0-1t33+0+0t34+0+0t21+1+0t14+1+0t35+1+0t7+0-1t20+1+0t876+1+1t7+5+4t7+6+4t13+12+8t16+28+22t17+12+11t17+12+9t17+15+15t16+7+7t17+6+4t17+5+7t15+2+1t17+4+4t17+1+2t17+2+2t17+2+3t16+3+1t17+3+3t17+2+2t16+4+3t17+4+2t16+2+2t17+5+1t16+1+1t17+3+1t17+1+0t16+0+0t17+2+0t17+1+0,1743676494961,When you have to create a password for a new account%2C how often do you use strong passwords (different from any other password you used in the past%2C with many special characters and really long)?,experiment,NULL
1743676644,fab1e5282cc269a79861cd41df552374,PennController,16,0,experiment,NULL,MouseTracker,mouse,Click,757:446,1743676494964,When you have to create a password for a new account%2C how often do you use strong passwords (different from any other password you used in the past%2C with many special characters and really long)?,experiment,NULL
1743676644,fab1e5282cc269a79861cd41df552374,PennController,16,0,experiment,NULL,MouseTracker,mouse,Click,618:333,1743676502534,When you have to create a password for a new account%2C how often do you use strong passwords (different from any other password you used in the past%2C with many special characters and really long)?,experiment,NULL
1743676644,fab1e5282cc269a79861cd41df552374,PennController,16,0,experiment,NULL,Scale,response,Choice,Few times,1743676502534,When you have to create a password for a new account%2C how often do you use strong passwords (different from any other password you used in the past%2C with many special characters and really long)?,experiment,NULL
1743676644,fab1e5282cc269a79861cd41df552374,PennController,16,0,experiment,NULL,PennController,19,_Trial_,End,1743676503821,When you have to create a password for a new account%2C how often do you use strong passwords (different from any other password you used in the past%2C with many special characters and really long)?,experiment,NULL
1743676644,fab1e5282cc269a79861cd41df552374,PennController,17,0,experiment,NULL,PennController,20,_Trial_,Start,1743676503822,How often do you accept all the cookies (including the non-necessary ones) while browsing the internet?,experiment,NULL
